ax,ay,az,gx,gy,gz
1.16837041015625,3.4644098022460934,9.220070593261719,-1.8746967866268864,0.07234456365136802,1.5234992363782562
0.38307226562499996,4.498704919433593,7.45075556640625,-1.062519143866777,0.17919601862079185,0.6561638600055018
1.5107412475585937,2.5641899780273434,9.883264453125,-0.271525268363698,-0.2137029099388477,0.5987411953024822
1.5945383056640625,1.908178723144531,10.644620581054687,-0.6841424205336551,-0.11098162342834172,1.0089601851414547
1.3838485595703125,1.946485949707031,9.643844287109374,-0.4988177648447916,-0.1680045944095305,1.2002802466577798
1.8076222534179687,2.099714855957031,9.706093530273437,-0.1775972437334688,-0.4346003068706491,1.5083108749486873
2.8131869506835936,2.4756045166015626,10.24000050048828,0.14548851474639754,-0.1668055132440382,1.3472343050508901
3.0789433349609374,2.511517541503906,10.960655200195312,-0.09073047485558308,-0.2590015317463341,1.2301240445544765
2.231395947265625,2.1906945190429687,9.4618849609375,0.4283384385619671,0.1183093416619057,0.8814578878774415
2.29843359375,2.4396914916992185,8.786720092773438,0.834027566220191,0.15481470158911534,0.6111317006792358
2.243366955566406,2.8514941772460936,8.987833032226561,1.3081975515520856,0.4271393573964748,0.2987044414481898
2.0159177978515626,2.001552587890625,8.882488159179687,1.1798958668444108,0.47590199145982787,0.2220964780972937
1.7812860351562498,2.35589443359375,8.865728747558594,1.5288284860026666,0.46764165454199214,0.09046401237436258
2.288856787109375,3.2345664428710936,9.97903251953125,1.0479969386402592,0.543050536727396,0.0003996937218307625
2.0757728393554684,3.2728736694335936,9.354145886230468,0.33214548284136364,0.6472373668846148,-0.05209341507860938
2.9855694702148434,4.465186096191406,10.352527978515624,0.2302235837745192,0.7301071985441928,-0.3146921903214204
1.484405029296875,1.6256629272460936,10.68053360595703,2.1038545204765238,0.17173506914661762,-0.48149770356545857
1.6017209106445311,6.4739212890625,9.255983618164063,1.5422848413043022,-0.5474471676675343,-0.15121745809263848
2.4349030883789062,7.230489013671875,9.440337145996093,0.4528529868342539,0.011724349173702367,-0.2538055133625342
2.2170307373046874,6.37815322265625,8.482656481933594,-0.18132771847055593,0.1668055132440382,-0.13189892820415164
2.003946789550781,5.829881042480468,8.731653454589843,-0.46191271119575117,0.32015467118644075,0.053159265003491406
2.013523596191406,5.693411547851563,9.423577734375,-0.6030045950020103,0.41115160852324434,0.13669525286612078
1.68551796875,5.336675500488281,9.093177905273437,-0.6917366012484396,0.5333246561628474,0.12883460967011579
1.1923124267578125,4.429273071289062,9.272743029785156,-0.4653767234516178,0.37904287953617305,0.11298009203749554
1.0462661254882812,4.271255761718749,9.445125549316407,-0.3241516084047483,0.2194318532850886,0.06235222060559895
1.2832920898437499,4.4196962646484375,9.212887988281249,-0.24887595745995478,0.1394931089189361,0.05062787143189658
1.4245499877929686,4.57771357421875,9.30147344970703,-0.13483001549757723,0.07634150086967564,0.022382848422522698
1.419761584472656,4.841075756835937,9.490615380859374,-0.0764747321102859,0.03757120985209167,-0.05529096485325548
1.3527239379882812,4.50109912109375,9.404424121093749,0.07247779489197827,0.10338744271355724,-0.05702297098118878
1.3910311645507811,4.721365673828124,9.184157568359375,0.036638591167819895,0.01505513018895872,-0.004130168458917879
1.5059528442382812,4.946420629882812,9.421183532714844,-0.03743797861148142,0.04276722823589159,-0.018652373685435583
1.3934253662109375,5.03740029296875,9.409212524414063,-0.18292649335787897,0.0909969373368036,-0.03930321598002497
1.3024457031249999,4.7572786987304685,9.3086560546875,-0.20037978587782226,0.09246248098351639,-0.03703828488965066
1.3431471313476562,4.525041137695312,9.373299499511718,-0.20037978587782226,0.048895865303963275,-0.04769678413847099
1.2401964599609374,4.376600634765625,9.349357482910156,-0.10805053613491612,0.032774885190122525,-0.036505359927209644
1.3168109130859373,4.436455676269531,9.390058911132812,-0.037171516130260915,0.0255803981971688,-0.03064318534035846
1.2880804931640624,4.522646936035156,9.236830004882812,0.004263399699528133,0.022915773384963714,-0.010392036767599824
1.3742717529296875,4.838681555175781,9.516951599121093,-0.04729709041664023,0.045298621807486415,-0.0057289433462409285
1.2880804931640624,4.50109912109375,9.380482104492186,-0.02997702913730719,0.04223430327345057,0.006661562030512709
1.35990654296875,4.604049792480469,9.452308154296874,-0.05196018383799912,0.049029096544573526,-0.01438897398590745
1.3168109130859373,4.453215087890625,9.344569079589844,-0.006928024511733216,0.019984686091538122,-0.010791730489430587
1.35990654296875,4.733336682128906,9.521740002441407,-0.00013323124061025415,-0.009459418083328047,-0.03797090357392244
1.3623007446289062,4.800374328613281,9.332598071289063,-0.002797856052815337,-0.0021316998497640663,-0.03916998473941472
1.3575123413085937,4.714183068847656,9.354145886230468,-0.04876263406335302,0.0005329249624410166,-0.021983154700691936
1.199495031738281,4.630386010742187,9.363722692871093,-0.06834762643306039,0.0073277182335639785,-0.022649310903743208
1.2904746948242187,4.673481640625,9.325415466308593,-0.04569831552931718,0.0013323124061025418,-0.009725880564548555
1.4006079711914061,4.5968671875,9.366116894531249,-0.026513016881440577,0.02078407353519965,-0.017586523760553547
1.3383587280273437,4.620809204101562,9.332598071289063,-0.021716692219471426,0.0255803981971688,-0.0011990811654922875
1.3120225097656248,4.7189714721679685,9.414000927734374,-0.06141960192132717,0.02624655440022007,0.0073277182335639785
1.3383587280273437,4.649539624023437,9.342174877929686,-0.053558958725322174,0.030909647821578966,0.002398162330984575
1.369483349609375,4.572925170898437,9.394847314453125,-0.023049004625573973,0.032375191468291764,-0.012257274136143382
1.3144167114257812,4.762067102050781,9.485826977539062,-0.04023583466429676,-0.02131699849764067,-0.0033307810152563544
1.388636962890625,4.7189714721679685,9.337386474609374,-0.05915467083095285,0.036771822408430146,-0.010791730489430587
1.4413093994140624,4.659116430664063,9.282319836425781,-0.053558958725322174,0.028245023009373885,-0.0010658499248820332
1.369483349609375,4.6351744140625,9.351751684570312,-0.06288514556803997,0.007860643196004996,-0.010924961730040842
1.2832920898437499,4.647145422363281,9.399635717773437,-0.0610199081994964,-0.014655436467127957,-0.00866003063966652
1.3814543579101561,4.642357019042969,9.315838659667968,-0.07234456365136802,0.026113323159609816,-0.022116385941302188
1.3407529296874998,4.6447512207031245,9.332598071289063,-0.03863705977697371,-0.001732006127933304,0.0010658499248820332
1.388636962890625,4.7931917236328125,9.574412438964844,-0.08700000011849597,0.02571362943777905,-0.0039969372183076245
1.4245499877929686,4.589684582519531,9.3852705078125,-0.035972434964768624,0.019318529888486854,-0.000799387443661525
1.37906015625,4.774038110351563,9.366116894531249,-0.07247779489197827,0.002398162330984575,-0.020251148572758632
1.4006079711914061,4.584896179199219,9.220070593261719,-0.08233690669713707,0.02744563556571236,-0.033307810152563545
1.3359645263671873,4.623203405761719,9.363722692871093,-0.07754058203516792,0.005462480865020421,-0.022382848422522698
1.3646949462890625,4.513070129394531,9.33978067626953,-0.0479632466196915,0.015188361429568975,-0.028911179212425153
1.388636962890625,4.685452648925781,9.34696328125,-0.0401026034236865,0.021716692219471426,-0.02531393571594829
1.39821376953125,4.642357019042969,9.236830004882812,-0.04663093421358895,0.01958499236970736,-0.0255803981971688
1.4006079711914061,4.623203405761719,9.315838659667968,-0.01692036755750228,0.01345635530163567,-0.017453292519943295
1.3742717529296875,4.797980126953124,9.469067565917967,-0.05662327725935802,0.02424808579106626,-0.012656967857974145
1.4030021728515625,4.65432802734375,9.284714038085937,-0.04783001537908124,0.0305099540997482,-0.006128637068071691
1.388636962890625,4.656722229003906,9.430760339355468,-0.06315160804926047,0.022382848422522698,-0.02105053601642016
1.3958195678710936,4.489128112792969,9.303867651367186,-0.048895865303963275,0.031575804024630234,-0.012923430339194655
1.3862427612304686,4.6351744140625,9.330203869628905,-0.0511607963943376,0.01958499236970736,-0.017852986241774057
1.3383587280273437,4.668693237304687,9.318232861328125,-0.04689739669480947,0.035705972483548114,-0.010258805526989571
1.4437036010742186,4.661510632324219,9.358934289550781,-0.02971056665608668,0.03797090357392244,-0.007194486992953725
1.3742717529296875,4.740519287109374,9.363722692871093,-0.04343338443894285,0.01505513018895872,-0.00866003063966652
1.369483349609375,4.747701892089843,9.397241516113281,-0.06288514556803997,0.039969372183076245,-0.011990811654922875
1.3934253662109375,4.651933825683593,9.414000927734374,-0.08500153150934216,0.021583460978861175,-0.003464012255866608
1.3718775512695311,4.630386010742187,9.354145886230468,-0.06661562030512709,0.037304747370871166,-0.010258805526989571
1.4245499877929686,4.697423657226563,9.37808790283203,-0.09059724361497283,0.03543951000232761,-0.0073277182335639785
1.419761584472656,4.649539624023437,9.361328491210937,-0.08873200624642928,0.04290045947650184,-0.001732006127933304
1.3479355346679687,4.563348364257812,9.37808790283203,-0.0668820827863476,0.045165390566876164,-0.002531393571594829
1.20667763671875,4.534617944335937,9.358934289550781,-0.03530627876171736,0.024914241994117528,-0.000799387443661525
1.39821376953125,4.623203405761719,9.342174877929686,-0.05222664631921963,0.0334410413931738,-0.017186830038722786
1.419761584472656,4.661510632324219,9.351751684570312,-0.05688973974057853,0.035972434964768624,-0.0095926493239383
1.3096283081054687,4.5585599609375,9.327809667968749,-0.02424808579106626,0.033041347671343035,-0.004929555902579405
1.35990654296875,4.639962817382812,9.433154541015625,-0.05702297098118878,0.037171516130260915,-0.011191424211261349
1.3551181396484375,4.548983154296875,9.361328491210937,-0.05062787143189658,0.017852986241774057,-0.0006661562030512709
1.4101847778320311,4.786009118652344,9.311050256347656,-0.0511607963943376,0.03077641658096871,-0.001732006127933304
1.4317325927734375,4.627991809082031,9.3086560546875,-0.05489127113142472,0.04036906590490701,0.00159877488732305
1.3215993164062498,4.7189714721679685,9.34696328125,-0.09086370609619333,0.03290811643073278,0.002264931090374321
1.35990654296875,4.527435339355469,9.349357482910156,-0.07287748861380902,0.037304747370871166,0.0013323124061025418
1.4149731811523436,4.632780212402343,9.334992272949219,-0.049695252747624805,0.04383307816077362,-0.0009326186842717792
1.350329736328125,4.632780212402343,9.3852705078125,-0.05675650849996827,0.022382848422522698,-0.0003996937218307625
1.3311761230468748,4.6639048339843745,9.447519750976562,-0.05622358353752725,0.018918836166656093,-0.0021316998497640663
1.39821376953125,4.6447512207031245,9.418789331054686,-0.08926493120887029,0.04862940282274277,-0.00479632466196915
1.3407529296874998,4.546588952636719,9.423577734375,-0.08380245034384987,0.020650842294589397,0.0002664624812205083
1.4030021728515625,4.584896179199219,9.45470235595703,-0.053159265003491406,0.026379785640830326,-0.0003996937218307625
1.3742717529296875,4.623203405761719,9.354145886230468,-0.049562021507014546,0.04743032165725048,0.002531393571594829
1.35990654296875,4.608838195800781,9.382876306152344,-0.06261868308681946,0.027978560528153375,-0.005595712105630674
1.3359645263671873,4.57771357421875,9.406818322753905,-0.04316692195772235,0.02424808579106626,-0.006928024511733216
1.438915197753906,4.608838195800781,9.457096557617186,-0.037304747370871166,0.030909647821578966,-0.0005329249624410166
1.419761584472656,4.639962817382812,9.406818322753905,-0.07807350699760894,0.02145022973825092,-0.005062787143189658
1.3575123413085937,4.6830584472656245,9.433154541015625,-0.06834762643306039,0.04210107203284032,0.0095926493239383
1.3192051147460937,4.510675927734375,9.327809667968749,-0.04449923436382489,0.035705972483548114,0.008127105677225504
1.2593500732421874,4.529829541015625,9.3086560546875,-0.021583460978861175,0.03424042883683532,-0.0073277182335639785
1.3646949462890625,4.618415002441406,9.466673364257812,-0.01185758041431262,0.00013323124061025415,0.0002664624812205083
1.4101847778320311,4.582501977539062,9.323021264648437,0.004663093421358896,0.03437366007744557,-0.006128637068071691
1.4125789794921875,4.673481640625,9.411606726074218,-0.02438131703167651,0.01705359879811253,-0.00985911180515881
1.3575123413085937,4.563348364257812,9.41639512939453,0.001732006127933304,0.011457886692481857,-0.0033307810152563544
1.35990654296875,4.649539624023437,9.445125549316407,0.025180704475338038,0.015188361429568975,-0.004663093421358896
1.3718775512695311,4.642357019042969,9.313444458007812,0.03530627876171736,0.02131699849764067,0.0003996937218307625
1.4604630126953124,4.695029455566406,9.306261853027344,0.014788667707738212,0.02131699849764067,0.002531393571594829
1.388636962890625,4.704606262207031,9.330203869628905,0.01958499236970736,0.0369050536490404,-0.011058192970651094
1.3120225097656248,4.728548278808593,9.282319836425781,0.011990811654922875,0.010258805526989571,0.0005329249624410166
1.37906015625,4.627991809082031,9.277531433105468,0.02971056665608668,-0.00985911180515881,0.0005329249624410166
1.2832920898437499,4.544194750976562,9.267954626464844,0.1215068914365518,0.0005329249624410166,-0.005329249624410167
1.4700398193359374,5.042188696289062,9.392453112792968,0.05822205214668107,-0.0401026034236865,-0.02105053601642016
1.484405029296875,5.073313317871094,9.236830004882812,-0.04862940282274277,0.03170903526524049,-0.011058192970651094
1.4532804077148436,4.984727856445312,9.320627062988281,-0.10978254226284943,0.06701531402695785,0.002797856052815337
1.4987702392578124,4.946420629882812,9.270348828125,-0.21023889768298107,0.11817611042129544,0.009059724361497283
1.3910311645507811,4.69263525390625,9.3086560546875,-0.24208116418883183,0.08526799399056267,0.006661562030512709
1.254561669921875,4.450820886230469,9.258377819824219,-0.15454823910789484,0.09486064331450096,0.011191424211261349
1.3287819213867187,4.541800549316406,9.421183532714844,-0.0720781011701475,0.0720781011701475,0.0058621745868511835
1.3120225097656248,4.50109912109375,9.37808790283203,-0.005062787143189658,-0.007194486992953725,-0.005062787143189658
1.3838485595703125,4.76924970703125,9.351751684570312,-0.04223430327345057,0.03903675349880447,-0.0057289433462409285
1.3239935180664062,4.6639048339843745,9.320627062988281,-0.01851914244482533,0.027312404325102103,0.010258805526989571
1.3431471313476562,4.7022120605468745,9.315838659667968,-0.017852986241774057,0.04210107203284032,-0.015987748873230498
1.3287819213867187,4.647145422363281,9.375693701171874,0.011324655451871604,0.008127105677225504,0.002264931090374321
1.3958195678710936,4.800374328613281,9.3086560546875,0.008926493120887028,0.04036906590490701,-0.01692036755750228
1.3407529296874998,4.7572786987304685,9.354145886230468,-0.004130168458917879,0.028378254249984136,0.006928024511733216
1.4245499877929686,4.707000463867187,9.3086560546875,0.003863705977697371,0.049428790266404295,-0.008526799399056265
1.2928688964843749,4.867411975097656,9.49300958251953,-0.035705972483548114,0.019984686091538122,0.012523736617363892
1.3168109130859373,4.771643908691406,9.327809667968749,-0.04356661567955311,0.04849617158213252,0.02691271060327134
1.3551181396484375,4.742913488769531,9.358934289550781,-0.058754977109122086,0.05342572748471192,0.01945176112909711
1.3168109130859373,4.764461303710937,9.303867651367186,-0.07460949474174233,0.03956967846124549,0.024781010753507273
1.2808978881835937,4.7022120605468745,9.248801013183593,-0.04449923436382489,0.05329249624410167,0.02971056665608668
1.3048399047851562,4.695029455566406,9.394847314453125,-0.000799387443661525,0.04356661567955311,0.02105053601642016
1.3383587280273437,4.790797521972656,9.272743029785156,-0.014522205226517705,0.044632465604435144,0.006261868308681946
1.3934253662109375,4.726154077148437,9.294290844726563,-0.005196018383799912,0.011191424211261349,0.0075941807147844875
1.4437036010742186,4.821922143554687,9.373299499511718,-0.0039969372183076245,0.011724349173702367,-0.011724349173702367
1.3646949462890625,4.836287353515624,9.323021264648437,-0.006928024511733216,0.023848392069235495,-0.007194486992953725
1.3814543579101561,4.797980126953124,9.373299499511718,-0.009326186842717792,0.031575804024630234,0.0006661562030512709
1.3742717529296875,4.88417138671875,9.330203869628905,-0.05728943346240929,0.03384073511500456,0.008393568158446012
1.3455413330078123,4.797980126953124,9.253589416503905,-0.03397396635561481,0.017453292519943295,0.006928024511733216
1.3455413330078123,4.872200378417968,9.277531433105468,-0.03543951000232761,0.0305099540997482,0.005329249624410167
1.3814543579101561,4.836287353515624,9.160215551757812,-0.058355283387291325,0.032108728987071254,0.0058621745868511835
1.3407529296874998,4.771643908691406,9.253589416503905,-0.049428790266404295,0.026513016881440577,0.007727411955394742
1.3000515014648437,4.752490295410156,9.330203869628905,-0.020650842294589397,0.03797090357392244,0.0011990811654922875
1.43652099609375,4.829104748535156,9.315838659667968,-0.018252679963604822,0.023315467106794475,0.0018652373685435584
1.3814543579101561,4.8650177734375,9.229647399902344,-0.0191852986478766,0.033307810152563545,0.006661562030512709
1.3862427612304686,4.8650177734375,9.229647399902344,-0.021849923460081685,0.03557274124293786,-0.0058621745868511835
1.3670891479492187,4.900930798339844,9.291896643066405,-0.06634915782390657,0.0035972434964768626,-0.0021316998497640663
1.3958195678710936,4.853046765136718,9.227253198242186,-0.05542419609386573,0.00866003063966652,-0.007993874436615249
1.3814543579101561,4.805162731933594,9.296685046386719,-0.054491577409593955,0.017852986241774057,-0.010125574286379316
1.39821376953125,4.927267016601562,9.279925634765624,-0.019984686091538122,0.01372281778285618,-0.004396630940138387
1.426944189453125,4.841075756835937,9.325415466308593,-0.020517611053979142,0.025047473234727783,0.004396630940138387
1.3623007446289062,4.848258361816406,9.30147344970703,-0.031575804024630234,0.02571362943777905,0.012656967857974145
1.3623007446289062,4.838681555175781,9.198522778320312,-0.01985145485092787,0.030909647821578966,0.005995405827461438
1.429338391113281,4.948814831542968,9.296685046386719,-0.032774885190122525,0.02398162330984575,0.00013323124061025415
1.419761584472656,4.857835168457031,9.200916979980468,-0.028911179212425153,0.03370750387439431,0.002531393571594829
1.5729904907226562,4.984727856445312,9.009380847167968,-0.06808116395183987,0.004263399699528133,-0.006261868308681946
1.3958195678710936,4.88417138671875,9.17458076171875,-0.041967840792230066,0.01958499236970736,0.0014655436467127959
1.37906015625,4.809951135253906,9.315838659667968,-0.06301837680865022,0.0039969372183076245,0.018652373685435583
1.458068811035156,4.939238024902344,9.093177905273437,-0.01532159267017923,0.0255803981971688,-0.019318529888486854
1.4149731811523436,4.898536596679687,9.342174877929686,-0.07540888218540386,-0.02997702913730719,-0.01572128639200999
1.3934253662109375,4.829104748535156,9.277531433105468,-0.04929555902579404,0.031975497746460996,-0.010392036767599824
1.35990654296875,4.898536596679687,9.323021264648437,-0.059287902071563106,0.023049004625573973,-0.008393568158446012
1.3838485595703125,4.802768530273437,9.102754711914063,-0.05622358353752725,0.009059724361497283,-0.012390505376753637
1.3479355346679687,4.781220715332031,9.191340173339842,-0.0255803981971688,0.07860643196004995,0.04356661567955311
1.4987702392578124,4.932055419921875,9.208099584960937,-0.022249617181912446,0.021583460978861175,0.0018652373685435584
1.5155296508789062,4.879382983398437,9.210493786621093,-0.017453292519943295,0.04023583466429676,-0.0005329249624410166
1.4125789794921875,4.915296008300781,9.200916979980468,-0.01052526800821008,-0.012523736617363892,-0.011058192970651094
1.455674609375,4.955997436523437,9.157821350097656,0.005062787143189658,0.017186830038722786,-0.025447166956558548
1.4628572143554686,5.015852478027344,9.210493786621093,-0.07540888218540386,0.011724349173702367,-0.017186830038722786
1.3239935180664062,4.967968444824218,9.145850341796875,-0.10072281790135215,0.06621592658329632,0.019318529888486854
1.2665326782226562,4.735730883789063,9.212887988281249,-0.06381776425231174,0.059021439590342596,0.012390505376753637
1.3623007446289062,4.759672900390624,9.124302526855468,0.013056661579804908,0.03757120985209167,0.015588055151399738
1.5634136840820312,5.082890124511718,9.141061938476563,-0.008793261880276773,0.011591117933092112,-0.004263399699528133
1.4772224243164063,5.046977099609375,9.2320416015625,-0.037171516130260915,0.018252679963604822,-0.014921898948348467
1.458068811035156,4.946420629882812,9.167398156738281,-0.040901990867348026,0.011457886692481857,-0.033041347671343035
2.1978771240234374,5.315127685546875,9.030928662109375,-0.07913935692249098,0.15454823910789484,0.01212404289553313
1.35990654296875,5.149927770996094,9.246406811523437,-0.07114548248587572,0.040502297145517265,0.02464777951289702
1.369483349609375,4.958391638183594,8.695740429687499,-0.05209341507860938,0.015588055151399738,0.050894333913117096
1.5035586425781249,5.085284326171875,9.287108239746093,-0.0026646248122050836,0.05049464019128633,-0.015188361429568975
1.4820108276367188,4.932055419921875,9.270348828125,-0.058888208349732345,0.03317457891195329,-0.00013323124061025415
1.3670891479492187,4.936843823242187,9.210493786621093,-0.05062787143189658,0.03370750387439431,-0.011191424211261349
1.4604630126953124,4.989516259765625,9.200916979980468,-0.06781470147061937,0.0033307810152563544,-0.002398162330984575
1.4221557861328125,4.900930798339844,9.217676391601563,-0.059287902071563106,0.041301684589178794,0.0002664624812205083
1.438915197753906,5.003881469726562,9.267954626464844,-0.0764747321102859,0.05209341507860938,0.003863705977697371
1.458068811035156,4.879382983398437,9.1554271484375,-0.09033078113375233,0.02624655440022007,-0.01505513018895872
1.4796166259765624,4.970362646484375,9.208099584960937,-0.0671485452675681,0.008127105677225504,-0.018918836166656093
1.4006079711914061,4.934449621582031,9.234435803222656,-0.07061255752343472,-0.011457886692481857,-0.015854517632620246
1.438915197753906,4.891353991699218,9.2320416015625,-0.06395099549292199,0.03503981628049684,-0.010258805526989571
1.4173673828125,4.819527941894531,9.176974963378905,-0.05688973974057853,0.0255803981971688,0.0006661562030512709
1.4221557861328125,4.929661218261718,9.167398156738281,-0.03823736605514295,0.048895865303963275,0.017453292519943295
1.4867992309570313,4.821922143554687,9.114725720214842,-0.02145022973825092,0.04063552838612752,0.01732006127933304
1.4700398193359374,4.891353991699218,9.105148913574219,0.016254211354451008,0.027978560528153375,0.007860643196004996
1.4628572143554686,5.03740029296875,9.253589416503905,-0.002398162330984575,0.012523736617363892,-0.004130168458917879
1.4532804077148436,4.908113403320312,9.193734375,0.006661562030512709,0.021849923460081685,-0.0037304747370871167
1.458068811035156,4.946420629882812,9.172186560058593,0.01945176112909711,0.022249617181912446,0.0021316998497640663
1.458068811035156,4.979939453125,9.193734375,-0.000799387443661525,0.021849923460081685,-0.003863705977697371
1.4532804077148436,5.023035083007812,9.14824454345703,-0.02011791733214838,0.0039969372183076245,-0.012523736617363892
1.4604630126953124,5.042188696289062,9.131485131835937,-0.03264165394951227,0.002531393571594829,-0.009192955602107537
1.448492004394531,5.123591552734375,9.09796630859375,-0.04809647786030175,0.0191852986478766,-0.007860643196004996
1.4508862060546874,4.979939453125,9.160215551757812,-0.06528330789902453,0.032774885190122525,-0.008127105677225504
1.4437036010742186,4.910507604980468,9.100360510253905,-0.05129402763494785,-0.005062787143189658,-0.002531393571594829
1.388636962890625,4.896142395019531,9.181763366699219,-0.023848392069235495,0.029577335415476424,-0.0029310872934255917
1.426944189453125,5.039794494628906,9.121908325195312,-0.044099540641994124,0.026379785640830326,-0.005196018383799912
1.4867992309570313,5.054159704589844,9.095572106933593,-0.06608269534268607,0.02598009191899956,0.002797856052815337
1.467645617675781,5.042188696289062,9.10993731689453,-0.0868667688778857,0.030909647821578966,-0.014655436467127957
1.5658078857421873,4.977545251464844,9.13627353515625,-0.09472741207389071,0.007194486992953725,-0.01505513018895872
1.4437036010742186,4.953603234863281,9.167398156738281,-0.09073047485558308,0.02105053601642016,-0.013989280264076687
1.4772224243164063,4.853046765136718,9.1554271484375,-0.06488361417719378,0.004263399699528133,-0.010392036767599824
1.5275006591796874,4.886565588378906,9.088389501953124,-0.02011791733214838,0.02571362943777905,-0.006661562030512709
1.4628572143554686,4.898536596679687,9.117119921875,-0.013989280264076687,0.004929555902579405,0.000799387443661525
1.4101847778320311,4.99909306640625,9.227253198242186,-0.0003996937218307625,0.013856049023466432,-0.005062787143189658
1.4963760375976562,4.9823336547851556,9.083601098632812,0.0039969372183076245,0.027712098046932865,-0.020384379813368887
1.4604630126953124,5.011064074707031,9.085995300292968,-0.015588055151399738,0.005462480865020421,0.0018652373685435584
1.4532804077148436,5.087678527832031,9.160215551757812,-0.018785604926045835,0.036771822408430146,-0.011324655451871604
1.5897499023437498,5.073313317871094,9.088389501953124,-0.02584686067838931,0.040502297145517265,0.006794793271122962
1.5753846923828123,5.049371301269531,9.114725720214842,-0.03064318534035846,0.01851914244482533,-0.0011990811654922875
1.5322890624999999,5.0206408813476555,9.138667736816405,-0.008260336917835759,0.01372281778285618,0.0037304747370871167
1.5634136840820312,5.025429284667968,9.09796630859375,-0.021583460978861175,0.02011791733214838,-0.009192955602107537
1.5753846923828123,5.013458276367187,9.131485131835937,0.0003996937218307625,0.04036906590490701,-0.0058621745868511835
1.4867992309570313,5.142745166015625,9.066841687011719,-0.009192955602107537,0.03503981628049684,-0.01692036755750228
1.458068811035156,5.068524914550781,9.102754711914063,-0.022249617181912446,0.022782542144353463,-0.021983154700691936
1.438915197753906,5.102043737792968,9.10993731689453,-0.04703062793541972,0.022382848422522698,-0.01851914244482533
1.5083470458984374,5.027823486328125,9.0788126953125,-0.03424042883683532,0.005995405827461438,-0.01185758041431262
1.5275006591796874,5.102043737792968,9.100360510253905,-0.03557274124293786,-0.03490658503988659,-0.028644716731204646
1.5275006591796874,5.025429284667968,9.160215551757812,-0.018385911204215073,-0.017852986241774057,-0.01971822361031762
1.5251064575195312,5.049371301269531,9.17458076171875,-0.02078407353519965,0.0073277182335639785,-0.013056661579804908
1.5634136840820312,5.066130712890625,9.038111267089842,-0.022649310903743208,0.028911179212425153,-0.0127901990985844
1.5251064575195312,5.1523219726562495,9.030928662109375,-0.027978560528153375,0.025180704475338038,-0.01212404289553313
1.5275006591796874,5.1331683593749995,9.1554271484375,-0.027578866806322613,0.022382848422522698,-0.011724349173702367
1.4628572143554686,5.097255334472656,9.081206896972656,-0.036105666205378875,0.018119448722994567,-0.01945176112909711
1.47482822265625,5.200206005859375,9.102754711914063,-0.0369050536490404,0.026646248122050836,-0.024114854550456002
1.5107412475585937,5.142745166015625,9.069235888671875,-0.03943644722063524,0.020917304775809907,-0.020251148572758632
1.5586252807617187,5.123591552734375,8.980650427246093,-0.03757120985209167,0.010791730489430587,-0.01185758041431262
1.4820108276367188,5.2265422241210935,8.990227233886719,-0.0528928025222709,0.031842266505850744,-0.004396630940138387
1.5298948608398437,5.063736511230468,8.949525805664061,-0.04316692195772235,0.040768759626737774,0.007860643196004996
1.5059528442382812,5.145139367675781,9.05965908203125,-0.032774885190122525,0.03170903526524049,-0.0033307810152563544
1.4341267944335936,5.080495922851562,9.014169250488282,-0.02531393571594829,0.022116385941302188,-0.0011990811654922875
1.5682020874023437,5.252878442382812,8.978256225585938,-0.044898928085655654,0.0058621745868511835,-0.004396630940138387
1.649604943847656,5.212177014160156,9.042899670410156,-0.05022817771006582,0.026646248122050836,-0.006528330789902454
1.5083470458984374,5.197811804199218,9.102754711914063,-0.06674885154573734,0.02464777951289702,0.0003996937218307625
1.5011644409179687,5.181052392578125,9.045293872070312,-0.07727411955394742,0.03397396635561481,0.003863705977697371
1.4820108276367188,5.073313317871094,9.057264880371093,-0.07194486992953725,0.04250076575467108,0.005196018383799912
1.5442600708007812,5.0757075195312495,9.131485131835937,-0.06648238906451683,0.03290811643073278,0.002398162330984575
1.5275006591796874,5.092466931152344,9.145850341796875,-0.05649004601874777,0.03064318534035846,0.0006661562030512709
1.5514426757812498,5.125985754394531,9.102754711914063,-0.04729709041664023,0.037837672333312186,-0.0033307810152563544
1.5394716674804687,5.142745166015625,9.042899670410156,-0.04916232778518379,0.03170903526524049,-0.005196018383799912
1.5753846923828123,5.185840795898438,8.973467822265624,-0.06062021447766565,0.03543951000232761,-0.012390505376753637
1.5394716674804687,5.137956762695312,9.117119921875,-0.07047932628282445,0.018785604926045835,-0.0095926493239383
1.4508862060546874,5.125985754394531,9.191340173339842,-0.07127871372648598,0.01971822361031762,-0.0063950995492922
1.4939818359375,5.087678527832031,9.085995300292968,-0.06728177650817835,0.03757120985209167,0.005995405827461438
1.465251416015625,5.063736511230468,9.17458076171875,-0.059287902071563106,0.014522205226517705,-0.0006661562030512709
1.5370774658203123,5.123591552734375,8.973467822265624,-0.06341807053048099,0.020251148572758632,0.0057289433462409285
1.5801730957031248,5.164292980957031,8.992621435546875,-0.06648238906451683,0.0543583461689837,0.0058621745868511835
1.5203180541992187,5.128379956054687,9.054870678710937,-0.06608269534268607,0.049695252747624805,0.0035972434964768626
1.4101847778320311,5.025429284667968,9.131485131835937,-0.0514272588755581,0.017453292519943295,-0.002531393571594829
1.5634136840820312,5.109226342773437,9.023746057128905,-0.036638591167819895,0.021849923460081685,-0.005062787143189658
1.5634136840820312,5.006275671386718,9.04050546875,-0.01971822361031762,0.016520673835671518,-0.0063950995492922
1.608903515625,5.0948611328124995,9.05965908203125,0.00013323124061025415,-0.009059724361497283,-0.006528330789902454
1.5418658691406248,5.200206005859375,9.13627353515625,-0.016653905076281773,0.009059724361497283,0.0009326186842717792
1.5298948608398437,5.190629199218749,8.99501563720703,-0.04569831552931718,0.0302434916185277,0.002398162330984575
1.5322890624999999,5.1882349975585935,9.030928662109375,-0.04210107203284032,0.041168453348568536,0.007061255752343471
1.438915197753906,5.058948107910156,9.047688073730468,-0.025180704475338038,0.049828483988235056,0.011457886692481857
1.5466542724609373,5.197811804199218,9.114725720214842,-0.044765696845045395,0.03357427263378405,0.012656967857974145
1.5969325073242187,5.190629199218749,9.090783703613281,-0.06301837680865022,0.044232771882604376,0.01438897398590745
1.5610194824218748,5.1523219726562495,9.085995300292968,-0.06701531402695785,0.0654165391396348,0.02118376725703041
1.5562310791015623,5.130774157714844,9.030928662109375,-0.0610199081994964,0.049029096544573526,0.004663093421358896
1.5801730957031248,5.0948611328124995,9.062053283691405,-0.058488514627901576,0.0058621745868511835,-0.012523736617363892
1.6328455322265625,5.157110375976562,9.114725720214842,-0.06634915782390657,0.007860643196004996,-0.022516079663132953
1.5801730957031248,5.085284326171875,9.062053283691405,-0.04769678413847099,0.0057289433462409285,-0.02118376725703041
1.5011644409179687,5.204994409179688,8.992621435546875,-0.03170903526524049,0.0191852986478766,-0.01692036755750228
1.5011644409179687,5.154716174316406,9.045293872070312,-0.054491577409593955,0.022382848422522698,-0.0073277182335639785
1.4939818359375,5.159504577636718,9.066841687011719,-0.049828483988235056,0.0415681470703993,0.0009326186842717792
1.5035586425781249,5.185840795898438,8.980650427246093,-0.03797090357392244,0.049428790266404295,0.002264931090374321
1.5107412475585937,5.116408947753906,9.016563452148437,-0.0369050536490404,0.015854517632620246,-0.010258805526989571
1.4820108276367188,5.109226342773437,9.066841687011719,-0.03970290970185574,0.0010658499248820332,-0.009326186842717792
1.4915876342773438,5.104437939453125,9.042899670410156,-0.041301684589178794,0.006528330789902454,-0.004130168458917879
1.618480322265625,5.164292980957031,9.030928662109375,-0.023315467106794475,0.04223430327345057,0.01971822361031762
1.5107412475585937,5.178658190917968,9.045293872070312,-0.025447166956558548,0.03877029101758396,0.015987748873230498
1.5658078857421873,5.1331683593749995,9.030928662109375,-0.02105053601642016,0.03317457891195329,-0.000799387443661525
1.6041151123046875,5.159504577636718,9.064447485351561,-0.027045941843881597,0.0014655436467127959,-0.0063950995492922
1.5083470458984374,5.128379956054687,9.114725720214842,-0.0191852986478766,0.031176110302799476,0.0010658499248820332
1.5011644409179687,5.183446594238281,9.126696728515624,0.013056661579804908,0.053692189965932426,0.009725880564548555
1.47482822265625,5.324704492187499,8.98304462890625,-0.016387442595061263,0.04316692195772235,0.013189892820415163
1.6017209106445311,5.219359619140625,9.064447485351561,-0.022516079663132953,0.03903675349880447,0.005196018383799912
1.6041151123046875,5.202600207519531,8.990227233886719,-0.03530627876171736,0.01185758041431262,-0.01052526800821008
1.5394716674804687,5.212177014160156,9.023746057128905,-0.032241960227681506,0.006661562030512709,-0.016387442595061263
1.5729904907226562,5.200206005859375,8.935160595703124,-0.020384379813368887,-0.0021316998497640663,-0.026379785640830326
1.5658078857421873,5.219359619140625,9.090783703613281,-0.01971822361031762,-0.008526799399056265,-0.031176110302799476
1.5011644409179687,5.276820458984375,9.014169250488282,-0.02691271060327134,0.013056661579804908,-0.018385911204215073
1.4939818359375,5.286397265624999,9.095572106933593,-0.02424808579106626,0.024781010753507273,-0.006128637068071691
1.5394716674804687,5.2816088623046875,8.916006982421875,-0.01732006127933304,0.06301837680865022,-0.0005329249624410166
1.5442600708007812,5.224148022460938,8.894459167480468,-0.02424808579106626,0.03130934154340973,-0.0006661562030512709
1.5107412475585937,5.173869787597656,8.992621435546875,-0.010392036767599824,0.02997702913730719,0.0021316998497640663
1.4532804077148436,5.236119030761718,9.042899670410156,0.008926493120887028,0.037837672333312186,-0.003863705977697371
1.6065093139648436,5.293579870605469,8.95670841064453,0.008926493120887028,0.032108728987071254,-0.007061255752343471
1.5514426757812498,5.286397265624999,9.0021982421875,-0.01971822361031762,0.01732006127933304,-0.012390505376753637
1.5179238525390624,5.272032055664062,9.030928662109375,-0.03970290970185574,0.0255803981971688,-0.01851914244482533
1.5586252807617187,5.317521887207031,8.911218579101561,-0.03397396635561481,0.03743797861148142,-0.004929555902579405
1.5155296508789062,5.358223315429687,8.927977990722656,-0.04210107203284032,0.04063552838612752,0.002398162330984575
1.5538368774414062,5.3390697021484375,8.932766394042968,-0.033041347671343035,0.035173047521107094,-0.002264931090374321
1.5298948608398437,5.398924743652343,8.904035974121093,-0.0369050536490404,0.03877029101758396,-0.0029310872934255917
1.5203180541992187,5.360617517089843,8.932766394042968,-0.04916232778518379,0.01532159267017923,-0.0013323124061025418
1.5897499023437498,5.305550878906249,8.930372192382812,-0.03424042883683532,0.02424808579106626,-0.015854517632620246
1.5298948608398437,5.233724829101562,9.004592443847656,-0.017852986241774057,0.015188361429568975,-0.026513016881440577
1.5370774658203123,5.384559533691406,8.935160595703124,-0.013056661579804908,0.018785604926045835,-0.02851148549059439
1.5729904907226562,5.3007624755859375,8.930372192382812,-0.016787136316892024,0.009059724361497283,-0.02131699849764067
1.5969325073242187,5.310339282226562,8.927977990722656,-0.014788667707738212,0.02904441045303541,-0.023448698347404734
1.5873557006835937,5.367800122070312,8.8872765625,-0.01372281778285618,0.03797090357392244,-0.005329249624410167
1.5777788940429687,5.45877978515625,8.966285217285156,-0.02904441045303541,0.03770444109270193,0.0018652373685435584
1.5227122558593749,5.42047255859375,8.932766394042968,-0.044898928085655654,0.02997702913730719,-0.008793261880276773
1.5370774658203123,5.374982727050781,8.99501563720703,-0.04836294034152226,0.041434915829789046,0.0013323124061025418
1.5442600708007812,5.353434912109375,8.95670841064453,-0.04036906590490701,0.048229709100912004,-0.0035972434964768626
1.5083470458984374,5.372588525390625,8.963891015625,-0.029843797896696934,0.03743797861148142,-0.0058621745868511835
1.5346832641601562,5.434837768554687,8.916006982421875,-0.04729709041664023,0.027312404325102103,0.0039969372183076245
1.5227122558593749,5.413289953613281,8.901641772460938,-0.041035222107958284,0.03743797861148142,-0.0063950995492922
1.5586252807617187,5.391742138671875,8.963891015625,-0.058355283387291325,0.008127105677225504,-0.016387442595061263
1.465251416015625,5.42047255859375,8.91840118408203,-0.053026033762881154,0.02571362943777905,0.00013323124061025415
1.4915876342773438,5.363011718749999,8.968679418945312,-0.05249310880044014,0.0287779479718149,-0.004130168458917879
1.5490484741210937,5.389347937011719,8.94473740234375,-0.0433001531983326,0.03743797861148142,-0.002531393571594829
1.5059528442382812,5.276820458984375,8.8489693359375,-0.04369984692016337,0.016787136316892024,-0.00866003063966652
1.5729904907226562,5.360617517089843,8.892064965820312,-0.03357427263378405,0.06261868308681946,-0.0011990811654922875
1.5275006591796874,5.312733483886719,8.911218579101561,-0.0383705972957532,0.03890352225819422,-0.015188361429568975
1.5394716674804687,5.327098693847656,8.872911352539061,-0.022116385941302188,0.032108728987071254,-0.012923430339194655
1.5394716674804687,5.456385583496093,8.82981572265625,-0.03797090357392244,0.020384379813368887,-0.013589586542245924
1.5346832641601562,5.432443566894531,8.889670764160156,-0.04756355289786074,0.03011026037791744,-0.0058621745868511835
1.4867992309570313,5.355829113769531,8.913612780761719,-0.05275957128166065,0.016787136316892024,-0.0095926493239383
1.5083470458984374,5.379771130371093,8.932766394042968,-0.054225114928373445,0.03743797861148142,-0.0011990811654922875
1.6256629272460936,5.315127685546875,8.954314208984375,-0.061686064402547675,0.024514548272286763,-0.0006661562030512709
1.5490484741210937,5.363011718749999,8.89924757080078,-0.06395099549292199,0.027978560528153375,-0.005462480865020421
1.5107412475585937,5.453991381835937,8.884882360839843,-0.0604869832370554,0.01572128639200999,0.004263399699528133
1.5155296508789062,5.389347937011719,8.904035974121093,-0.05995405827461438,0.03064318534035846,0.013989280264076687
1.5538368774414062,5.360617517089843,8.999804040527343,-0.06954670759855268,0.03530627876171736,0.007194486992953725
1.5562310791015623,5.329492895507812,8.901641772460938,-0.07953905064432175,0.022915773384963714,0.0019984686091538122
1.4891934326171874,5.406107348632812,8.949525805664061,-0.07327718233563979,0.031842266505850744,0.001732006127933304
1.5107412475585937,5.341463903808593,8.975862023925782,-0.07221133241075775,0.007061255752343471,0.0057289433462409285
1.6017209106445311,5.324704492187499,8.882488159179687,-0.05395865244715294,0.024914241994117528,0.0009326186842717792
1.5753846923828123,5.367800122070312,8.971073620605468,-0.07754058203516792,0.02691271060327134,0.002398162330984575
1.5251064575195312,5.334281298828125,8.930372192382812,-0.06821439519245012,0.0334410413931738,0.00479632466196915
1.5251064575195312,5.3199160888671875,8.904035974121093,-0.050894333913117096,0.03357427263378405,-0.004263399699528133
1.5131354492187499,5.317521887207031,8.872911352539061,-0.054225114928373445,0.03144257278401998,-0.004130168458917879
1.5107412475585937,5.410895751953125,8.920795385742187,-0.07354364481686029,0.029444104174866172,0.005329249624410167
1.4867992309570313,5.305550878906249,8.951920007324219,-0.07660796335089615,0.01945176112909711,-0.006261868308681946
1.5370774658203123,5.343858105468749,8.904035974121093,-0.08100459429103453,0.012257274136143382,-0.011990811654922875
1.5490484741210937,5.334281298828125,8.870517150878905,-0.07807350699760894,0.02424808579106626,-0.002797856052815337
1.5298948608398437,5.312733483886719,8.949525805664061,-0.07447626350113207,0.021849923460081685,-0.003464012255866608
1.5418658691406248,5.2816088623046875,8.882488159179687,-0.0688805513955014,0.029310872934255914,-0.003464012255866608
1.6041151123046875,5.274426257324219,8.990227233886719,-0.07327718233563979,0.01971822361031762,0.0009326186842717792
1.5418658691406248,5.298368273925781,8.95670841064453,-0.06754823898939886,0.03863705977697371,-0.0013323124061025418
1.5394716674804687,5.322310290527343,9.030928662109375,-0.08073813180981403,0.04036906590490701,-0.001732006127933304
1.608903515625,5.346252307128906,8.93755479736328,-0.09819142432975732,0.04316692195772235,-0.004130168458917879
1.5275006591796874,5.298368273925781,8.9255837890625,-0.11031546722529045,0.03930321598002497,0.002264931090374321
1.5370774658203123,5.231330627441406,8.916006982421875,-0.10498621760088028,0.046098009251147945,0.004529862180748642
1.5801730957031248,5.202600207519531,8.975862023925782,-0.08033843808798326,0.04316692195772235,0.006928024511733216
1.5490484741210937,5.228936425781249,8.904035974121093,-0.07714088831333717,0.029177641693645662,0.008260336917835759
1.6136919189453125,5.212177014160156,8.968679418945312,-0.08566768771239343,0.016787136316892024,-0.0003996937218307625
1.4724340209960938,5.166687182617188,9.026140258789061,-0.06648238906451683,0.023581929588014985,0.0013323124061025418
1.5179238525390624,5.140350964355468,8.999804040527343,-0.036505359927209644,0.02118376725703041,-0.0006661562030512709
1.5825672973632812,5.248090039062499,8.920795385742187,-0.04210107203284032,0.03477335379927634,-0.005062787143189658
1.5634136840820312,5.228936425781249,8.966285217285156,-0.04396630940138387,0.021983154700691936,-0.0030643185340358454
1.5275006591796874,5.176263989257812,8.904035974121093,-0.012390505376753637,0.05515773361264523,-0.008260336917835759
1.5203180541992187,5.240907434082031,8.987833032226561,-0.015188361429568975,0.0305099540997482,0.0030643185340358454
1.5586252807617187,5.2265422241210935,9.07163009033203,-0.017186830038722786,0.020917304775809907,-0.005196018383799912
1.5442600708007812,5.284003063964843,9.014169250488282,-0.02078407353519965,0.024514548272286763,0.0019984686091538122
1.4867992309570313,5.257666845703125,8.999804040527343,-0.022382848422522698,0.014655436467127957,-0.005595712105630674
1.4891934326171874,5.291185668945312,9.050082275390624,-0.029177641693645662,0.020650842294589397,-0.0021316998497640663
1.5490484741210937,5.315127685546875,9.023746057128905,-0.04290045947650184,0.024914241994117528,0.0009326186842717792
1.5849614990234373,5.288791467285156,8.935160595703124,-0.048229709100912004,0.03743797861148142,-0.001732006127933304
1.5059528442382812,5.2624552490234375,8.89924757080078,-0.03983614094246599,0.045298621807486415,0.0005329249624410166
1.5514426757812498,5.269637854003906,8.872911352539061,-0.04583154676992743,0.03464012255866608,0.0019984686091538122
1.5394716674804687,5.288791467285156,8.954314208984375,-0.03037672285913795,0.02997702913730719,-0.0030643185340358454
1.5801730957031248,5.293579870605469,8.942343200683593,-0.028111791768763626,0.0302434916185277,-0.003464012255866608
1.4987702392578124,5.3007624755859375,8.990227233886719,-0.031575804024630234,0.028378254249984136,-0.001732006127933304
1.5394716674804687,5.269637854003906,8.901641772460938,-0.03477335379927634,0.024114854550456002,-0.0063950995492922
1.5155296508789062,5.324704492187499,8.954314208984375,-0.050094946469455566,0.011457886692481857,-0.007727411955394742
1.5418658691406248,5.255272644042968,8.947131604003905,-0.02971056665608668,0.02011791733214838,-0.0030643185340358454
1.5634136840820312,5.303156677246093,8.959102612304687,-0.014788667707738212,0.026646248122050836,-0.0030643185340358454
1.4987702392578124,5.358223315429687,8.951920007324219,-0.025447166956558548,0.016254211354451008,0.00159877488732305
1.5897499023437498,5.370194323730469,8.947131604003905,-0.04916232778518379,0.044632465604435144,0.004263399699528133
1.5298948608398437,5.427655163574219,9.02135185546875,-0.0479632466196915,0.031176110302799476,0.0006661562030512709
1.5777788940429687,5.3199160888671875,8.961496813964843,-0.026646248122050836,0.03424042883683532,0.0018652373685435584
1.5801730957031248,5.355829113769531,8.94473740234375,-0.033041347671343035,0.02438131703167651,0.0014655436467127959
1.599326708984375,5.360617517089843,8.877699755859375,-0.05942113331217336,0.04290045947650184,0.00159877488732305
1.5203180541992187,5.2624552490234375,8.942343200683593,-0.05555742733447598,0.02744563556571236,0.00159877488732305
1.5370774658203123,5.324704492187499,8.961496813964843,-0.035705972483548114,0.029444104174866172,-0.002264931090374321
1.5394716674804687,5.324704492187499,8.901641772460938,-0.03490658503988659,0.037304747370871166,-0.0033307810152563544
1.5227122558593749,5.322310290527343,8.88009395751953,-0.03863705977697371,0.03410719759622506,0.0031975497746461
1.5682020874023437,5.286397265624999,8.904035974121093,-0.02744563556571236,0.0369050536490404,-0.01052526800821008
1.5969325073242187,5.2433016357421875,8.966285217285156,0.006794793271122962,0.01532159267017923,-0.01505513018895872
1.6256629272460936,5.437231970214843,9.014169250488282,0.015854517632620246,0.03770444109270193,-0.019318529888486854
1.599326708984375,5.432443566894531,8.872911352539061,-0.009059724361497283,0.05662327725935802,-0.0074609494741742334
1.5298948608398437,5.255272644042968,8.927977990722656,-0.02971056665608668,0.07021286380160395,-0.0058621745868511835
1.5418658691406248,5.449202978515625,8.815450512695312,-0.07101225124526546,0.03557274124293786,0.008793261880276773
1.4867992309570313,5.456385583496093,8.932766394042968,-0.0929954059459574,0.029310872934255914,0.0074609494741742334
1.4939818359375,5.303156677246093,8.913612780761719,-0.10605206752576231,-0.0003996937218307625,0.017852986241774057
1.5825672973632812,5.307945080566406,8.877699755859375,-0.11231393583444427,0.0006661562030512709,0.008793261880276773
1.5634136840820312,5.257666845703125,8.968679418945312,-0.08326952538140886,0.013189892820415163,0.0026646248122050836
1.5705962890624998,5.219359619140625,8.968679418945312,-0.046098009251147945,0.026646248122050836,0.0011990811654922875
1.5562310791015623,5.2648494506835934,8.920795385742187,-0.016387442595061263,0.01532159267017923,-0.006928024511733216
1.5729904907226562,5.286397265624999,8.968679418945312,0.009326186842717792,0.03743797861148142,-0.01732006127933304
1.5897499023437498,5.358223315429687,8.920795385742187,0.0063950995492922,0.02717917308449185,-0.027045941843881597
1.465251416015625,5.406107348632812,8.949525805664061,0.0,0.04716385917602997,-0.01971822361031762
1.4987702392578124,5.403713146972656,8.935160595703124,-0.024914241994117528,0.032375191468291764,0.0006661562030512709
1.5634136840820312,5.461173986816406,8.877699755859375,-0.031975497746460996,0.04383307816077362,-0.0009326186842717792
1.5753846923828123,5.456385583496093,8.894459167480468,-0.05395865244715294,0.03357427263378405,-0.00479632466196915
1.5011644409179687,5.410895751953125,8.9255837890625,-0.06768147023000912,0.03011026037791744,-0.0013323124061025418
1.5442600708007812,5.284003063964843,8.98304462890625,-0.058888208349732345,0.029577335415476424,0.007061255752343471
1.4532804077148436,5.367800122070312,8.927977990722656,-0.05249310880044014,0.02584686067838931,0.01212404289553313
1.618480322265625,5.394136340332031,8.877699755859375,-0.044099540641994124,0.036238897445989134,0.0003996937218307625
1.5753846923828123,5.382165332031249,8.939948999023438,-0.05182695259738887,0.01851914244482533,-0.00159877488732305
1.5897499023437498,5.315127685546875,8.923189587402343,-0.05342572748471192,0.01732006127933304,-0.011724349173702367
1.5634136840820312,5.355829113769531,8.99501563720703,-0.0369050536490404,0.041168453348568536,-0.006661562030512709
1.5610194824218748,5.394136340332031,8.91840118408203,-0.048229709100912004,0.04449923436382489,-0.009059724361497283
1.4891934326171874,5.430049365234375,8.851363537597656,-0.07833996947882944,0.021716692219471426,-0.0003996937218307625
1.5801730957031248,5.355829113769531,8.892064965820312,-0.08500153150934216,0.02424808579106626,0.002398162330984575
1.5059528442382812,5.310339282226562,8.813056311035156,-0.08540122523117291,0.00866003063966652,0.00866003063966652
1.5251064575195312,5.341463903808593,8.920795385742187,-0.07580857590723461,0.03543951000232761,0.008260336917835759
1.5634136840820312,5.274426257324219,8.932766394042968,-0.06088667695888615,0.032774885190122525,-0.0011990811654922875
1.4915876342773438,5.336675500488281,8.894459167480468,-0.045032159326265905,0.020650842294589397,-0.006528330789902454
1.5801730957031248,5.367800122070312,8.935160595703124,-0.04263399699528134,0.01692036755750228,-0.014122511504686942
1.5849614990234373,5.363011718749999,9.038111267089842,-0.04876263406335302,0.023848392069235495,-0.0010658499248820332
1.5705962890624998,5.434837768554687,8.8872765625,-0.05542419609386573,0.027578866806322613,-0.0029310872934255917
1.5394716674804687,5.269637854003906,8.88009395751953,-0.054491577409593955,0.023581929588014985,-0.001732006127933304
1.5610194824218748,5.329492895507812,8.892064965820312,-0.049961715228845315,0.03490658503988659,-0.0026646248122050836
1.5059528442382812,5.317521887207031,8.858546142578124,-0.058488514627901576,0.032375191468291764,-0.002797856052815337
1.6136919189453125,5.315127685546875,8.930372192382812,-0.04849617158213252,0.03583920372415837,-0.0030643185340358454
1.5322890624999999,5.374982727050781,8.889670764160156,-0.04729709041664023,0.022782542144353463,-0.004130168458917879
1.5969325073242187,5.410895751953125,8.889670764160156,-0.053159265003491406,0.027312404325102103,0.009059724361497283
1.5394716674804687,5.310339282226562,8.997409838867187,-0.05675650849996827,0.02011791733214838,0.0009326186842717792
1.5442600708007812,5.310339282226562,8.966285217285156,-0.05942113331217336,0.018918836166656093,0.009459418083328047
1.5921441040039062,5.322310290527343,8.91840118408203,-0.054091883687763194,0.03490658503988659,0.002398162330984575
1.5083470458984374,5.374982727050781,8.99501563720703,-0.05555742733447598,0.029444104174866172,-0.005995405827461438
1.5586252807617187,5.327098693847656,8.884882360839843,-0.05968759579339387,0.013589586542245924,-0.009059724361497283
1.5801730957031248,5.374982727050781,8.877699755859375,-0.06115313944010666,0.022915773384963714,-0.002398162330984575
1.5729904907226562,5.279214660644531,8.889670764160156,-0.05808882090607082,0.03317457891195329,-0.0021316998497640663
1.5753846923828123,5.315127685546875,8.88009395751953,-0.0558238898156965,0.026779479362661087,-0.00013323124061025415
1.5011644409179687,5.305550878906249,8.978256225585938,-0.053026033762881154,0.015987748873230498,-0.004663093421358896
1.5849614990234373,5.389347937011719,8.985438830566405,-0.053026033762881154,0.0191852986478766,-0.011058192970651094
1.6160861206054686,5.382165332031249,8.894459167480468,-0.061952526883768184,0.021716692219471426,-0.004529862180748642
1.5682020874023437,5.360617517089843,8.913612780761719,-0.06315160804926047,0.02691271060327134,-0.005329249624410167
1.5275006591796874,5.3007624755859375,8.980650427246093,-0.049828483988235056,0.04036906590490701,0.011724349173702367
1.5849614990234373,5.434837768554687,8.954314208984375,-0.045565084288706925,0.07247779489197827,0.01185758041431262
1.4724340209960938,5.2648494506835934,8.846575134277343,-0.044232771882604376,0.0834027566220191,0.029177641693645662
1.5298948608398437,5.2073886108398435,9.0021982421875,-0.03357427263378405,0.08273660041896783,0.031975497746460996
1.6208745239257811,5.379771130371093,9.006986645507812,-0.0073277182335639785,0.10392036767599824,0.031575804024630234
1.7525556152343749,5.566518859863281,8.877699755859375,-0.031176110302799476,0.010392036767599824,-0.0057289433462409285
1.714248388671875,5.473144995117187,8.961496813964843,-0.07514241970418334,-0.02078407353519965,-0.04703062793541972
1.4796166259765624,5.204994409179688,8.875305554199219,-0.08446860654690114,-0.08207044421591657,-0.049562021507014546
1.5227122558593749,5.197811804199218,9.02135185546875,-0.040901990867348026,0.020917304775809907,-0.020384379813368887
1.5179238525390624,5.181052392578125,8.951920007324219,0.0011990811654922875,0.0747427259823526,0.016653905076281773
1.6065093139648436,5.439626171875,8.86094034423828,0.002531393571594829,0.0848683002687319,0.025447166956558548
1.66636435546875,5.4515971801757805,8.805873706054687,-0.02118376725703041,0.08353598786262936,0.008926493120887028
1.5897499023437498,5.442020373535156,8.836998327636719,-0.07660796335089615,0.003863705977697371,-0.018918836166656093
1.5897499023437498,5.3390697021484375,8.9255837890625,-0.07087902000465522,-0.006928024511733216,-0.026779479362661087
1.5275006591796874,5.305550878906249,8.90643017578125,-0.05475803989081446,-0.003464012255866608,-0.01572128639200999
1.5083470458984374,5.231330627441406,8.95670841064453,-0.03503981628049684,0.03437366007744557,0.0073277182335639785
1.5538368774414062,5.315127685546875,8.851363537597656,-0.0073277182335639785,0.07021286380160395,0.02398162330984575
1.5849614990234373,5.432443566894531,8.894459167480468,-0.021983154700691936,0.057955589665460557,0.011990811654922875
1.6448165405273436,5.389347937011719,8.865728747558594,-0.037304747370871166,0.03424042883683532,-0.002264931090374321
1.5969325073242187,5.391742138671875,8.894459167480468,-0.036372128686599385,0.03144257278401998,-0.024514548272286763
1.5155296508789062,5.343858105468749,8.916006982421875,-0.044632465604435144,0.02078407353519965,-0.025180704475338038
1.3934253662109375,5.336675500488281,8.9255837890625,-0.0401026034236865,0.0305099540997482,-0.0033307810152563544
1.4772224243164063,5.334281298828125,8.93755479736328,-0.02371516082862524,0.06022052075583488,0.006928024511733216
1.4317325927734375,5.434837768554687,8.877699755859375,-0.026779479362661087,0.0464977029729787,0.013856049023466432
1.637633935546875,5.53539423828125,8.834604125976561,-0.03317457891195329,0.03810413481453269,-0.0009326186842717792
1.5514426757812498,5.475539196777343,8.853757739257812,-0.044765696845045395,0.044765696845045395,-0.007727411955394742
1.5634136840820312,5.329492895507812,8.911218579101561,-0.054491577409593955,0.026513016881440577,-0.015987748873230498
1.5490484741210937,5.3390697021484375,8.966285217285156,-0.03264165394951227,0.02971056665608668,-0.01732006127933304
1.5682020874023437,5.348646508789062,8.95670841064453,-0.027312404325102103,0.025047473234727783,-0.01212404289553313
1.5729904907226562,5.341463903808593,8.839392529296875,-0.024514548272286763,0.04170137831100955,-0.006128637068071691
1.5322890624999999,5.422866760253906,8.88009395751953,-0.049428790266404295,0.010791730489430587,-0.002531393571594829
1.5586252807617187,5.3390697021484375,8.863334545898438,-0.03810413481453269,0.03970290970185574,0.005196018383799912
1.5251064575195312,5.360617517089843,8.846575134277343,-0.04063552838612752,0.02717917308449185,0.0026646248122050836
1.5682020874023437,5.576095666503906,8.892064965820312,-0.03450689131805583,0.025180704475338038,-0.007727411955394742
1.5251064575195312,5.513846423339843,8.772354882812499,-0.03077641658096871,0.008260336917835759,-0.01958499236970736
1.5586252807617187,5.664681127929687,8.858546142578124,-0.05675650849996827,0.035173047521107094,0.0037304747370871167
1.426944189453125,5.248090039062499,8.997409838867187,-0.06941347635794241,0.05342572748471192,0.018119448722994567
1.5610194824218748,5.403713146972656,8.825027319335938,-0.014255742745297196,0.03890352225819422,-0.004130168458917879
1.4796166259765624,5.252878442382812,8.882488159179687,-0.01985145485092787,0.026646248122050836,-0.006661562030512709
1.5801730957031248,5.846640454101562,8.86094034423828,-0.025180704475338038,-0.00159877488732305,0.0011990811654922875
1.3646949462890625,5.099649536132812,8.95670841064453,-0.1310995407604901,0.06475038293658353,0.026779479362661087
1.5083470458984374,5.0206408813476555,8.79150849609375,-0.03770444109270193,0.044632465604435144,0.0035972434964768626
1.7812860351562498,5.499481213378906,8.805873706054687,-0.07021286380160395,0.044632465604435144,-0.0127901990985844
1.4053963745117186,5.492298608398437,8.975862023925782,-0.029310872934255914,0.044765696845045395,0.017586523760553547
1.4772224243164063,5.367800122070312,8.86812294921875,-0.05022817771006582,0.057689127184240054,0.005329249624410167
1.637633935546875,5.482721801757812,8.836998327636719,-0.04836294034152226,0.04743032165725048,-0.014788667707738212
1.5322890624999999,5.604826086425781,8.815450512695312,0.002531393571594829,0.02584686067838931,-0.002531393571594829
1.5538368774414062,5.446808776855469,8.772354882812499,-0.05968759579339387,0.026379785640830326,-0.01572128639200999
1.5275006591796874,5.379771130371093,8.896853369140624,-0.07460949474174233,0.026513016881440577,-0.012923430339194655
1.4173673828125,5.128379956054687,8.851363537597656,-0.06408422673353224,0.0010658499248820332,0.004929555902579405
1.5011644409179687,5.415684155273437,8.750807067871094,0.023448698347404734,0.05022817771006582,0.004529862180748642
1.608903515625,5.691017346191406,8.813056311035156,-0.031042879062189218,0.12137366019594154,0.04290045947650184
1.4939818359375,5.360617517089843,8.889670764160156,-0.07567534466662437,0.08739969384032674,0.02624655440022007
1.5155296508789062,5.549759448242187,8.856151940917968,-0.03384073511500456,0.05169372135677862,-0.0018652373685435584
1.5155296508789062,5.566518859863281,8.827421520996094,-0.03956967846124549,0.06315160804926047,-0.011990811654922875
1.5035586425781249,5.434837768554687,8.853757739257812,-0.07847320071943971,0.04583154676992743,-0.0058621745868511835
1.4413093994140624,5.329492895507812,8.904035974121093,-0.07074578876404496,0.04276722823589159,-0.0030643185340358454
1.5131354492187499,5.348646508789062,8.884882360839843,-0.04876263406335302,0.046231240491758196,-0.0003996937218307625
1.6472107421875,5.504269616699219,8.935160595703124,-0.050361408950676076,0.04369984692016337,-0.0075941807147844875
1.5227122558593749,5.427655163574219,8.817844714355468,-0.05062787143189658,0.05249310880044014,-0.007993874436615249
1.5155296508789062,5.487510205078125,8.750807067871094,-0.05529096485325548,0.025047473234727783,-0.007860643196004996
1.4245499877929686,5.293579870605469,8.827421520996094,-0.10445329263843926,-0.0003996937218307625,0.022249617181912446
1.3623007446289062,5.386953735351562,8.94473740234375,-0.07940581940371148,0.008926493120887028,0.024114854550456002
1.350329736328125,5.3390697021484375,8.84178673095703,-0.06648238906451683,0.0014655436467127959,0.006261868308681946
1.5298948608398437,5.4515971801757805,8.961496813964843,-0.07274425737319877,0.01052526800821008,0.0039969372183076245
1.3862427612304686,5.370194323730469,8.930372192382812,-0.06155283316193742,0.04596477801053769,0.028111791768763626
1.5634136840820312,5.353434912109375,8.91840118408203,-0.04596477801053769,0.03743797861148142,0.02571362943777905
1.5945383056640625,5.315127685546875,8.904035974121093,-0.05329249624410167,0.04223430327345057,0.010125574286379316
1.465251416015625,5.4899044067382805,8.954314208984375,-0.05462480865020421,0.022382848422522698,0.007061255752343471
1.429338391113281,5.504269616699219,8.939948999023438,-0.06967993883916293,0.006528330789902454,-0.007061255752343471
1.4628572143554686,5.530605834960937,8.91840118408203,-0.06754823898939886,0.014122511504686942,-0.001732006127933304
1.4772224243164063,5.322310290527343,8.913612780761719,-0.06648238906451683,0.006928024511733216,-0.0013323124061025418
1.5466542724609373,5.336675500488281,8.896853369140624,-0.07274425737319877,0.0011990811654922875,-0.016254211354451008
1.4963760375976562,5.372588525390625,8.894459167480468,-0.058355283387291325,0.014788667707738212,-0.01851914244482533
1.5131354492187499,5.252878442382812,8.894459167480468,-0.057955589665460557,-0.0033307810152563544,-0.013856049023466432
1.5825672973632812,5.374982727050781,8.91840118408203,-0.05542419609386573,0.013856049023466432,-0.008127105677225504
1.5610194824218748,5.4013189453125,8.813056311035156,-0.08406891282507037,0.019052067407266345,-0.016120980113840753
1.4915876342773438,5.559336254882812,8.84178673095703,-0.09672588068304452,0.02904441045303541,0.002398162330984575
1.5275006591796874,5.403713146972656,8.920795385742187,-0.07754058203516792,0.041967840792230066,0.012257274136143382
1.5011644409179687,5.204994409179688,8.892064965820312,-0.05475803989081446,0.03037672285913795,-0.0009326186842717792
1.599326708984375,5.494692810058593,8.966285217285156,-0.037171516130260915,0.008926493120887028,-0.007993874436615249
1.5969325073242187,5.391742138671875,8.935160595703124,-0.06754823898939886,0.037837672333312186,0.00866003063966652
1.5203180541992187,5.219359619140625,8.94473740234375,-0.05235987755982989,0.01971822361031762,0.0074609494741742334
1.467645617675781,5.439626171875,8.896853369140624,-0.0415681470703993,0.02371516082862524,0.024114854550456002
1.5897499023437498,5.487510205078125,8.90643017578125,-0.061952526883768184,0.05968759579339387,0.032774885190122525
1.4628572143554686,5.418078356933593,8.8872765625,-0.080205206847373,0.05062787143189658,0.013323124061025418
1.4867992309570313,5.2648494506835934,8.904035974121093,-0.07354364481686029,-0.0058621745868511835,0.0014655436467127959
1.5035586425781249,5.363011718749999,8.978256225585938,-0.07301071985441929,0.006661562030512709,-0.0075941807147844875
1.6208745239257811,5.272032055664062,8.504204296874999,-0.17200153162783813,0.11084839218773146,-0.021983154700691936
1.0965443603515623,5.03740029296875,8.506598498535157,-0.01692036755750228,0.0287779479718149,-0.028911179212425153
1.7621324218749999,5.980715747070312,8.724470849609375,-0.01958499236970736,0.04729709041664023,-0.017719755001163805
1.4987702392578124,5.015852478027344,9.112331518554686,-0.06368453301170149,-0.0002664624812205083,-0.007860643196004996
1.4891934326171874,5.291185668945312,8.89924757080078,-0.0035972434964768626,0.0006661562030512709,-0.015188361429568975
1.7405846069335937,5.45877978515625,9.02135185546875,-0.02105053601642016,0.03290811643073278,0.01505513018895872
1.5011644409179687,5.315127685546875,8.973467822265624,-0.033041347671343035,0.044099540641994124,0.008393568158446012
1.5298948608398437,5.521029028320312,8.84178673095703,-0.0514272588755581,0.031975497746460996,-0.0006661562030512709
1.5634136840820312,5.444414575195312,8.851363537597656,-0.04396630940138387,0.02997702913730719,-0.004929555902579405
1.608903515625,5.425260961914062,8.904035974121093,-0.0464977029729787,0.0610199081994964,-0.006661562030512709
1.4891934326171874,5.389347937011719,8.8489693359375,-0.044099540641994124,0.06861408891428089,0.0005329249624410166
1.484405029296875,5.377376928710937,8.913612780761719,-0.041834609551619814,0.035972434964768624,-0.0039969372183076245
1.438915197753906,5.396530541992187,8.930372192382812,-0.04223430327345057,0.03823736605514295,-0.005329249624410167
1.5083470458984374,5.293579870605469,8.896853369140624,-0.036505359927209644,0.0058621745868511835,-0.008793261880276773
1.5346832641601562,5.327098693847656,8.901641772460938,-0.007860643196004996,0.03890352225819422,-0.01185758041431262
1.4796166259765624,5.365405920410156,8.80347950439453,0.002797856052815337,0.03530627876171736,-0.012923430339194655
1.6136919189453125,5.415684155273437,8.927977990722656,-0.01438897398590745,0.017186830038722786,-0.0073277182335639785
1.5394716674804687,5.453991381835937,8.851363537597656,-0.012523736617363892,0.0511607963943376,-0.0074609494741742334
1.5586252807617187,5.521029028320312,8.980650427246093,-0.01958499236970736,0.07127871372648598,0.002398162330984575
1.4915876342773438,5.45877978515625,8.973467822265624,-0.04290045947650184,0.0383705972957532,0.0074609494741742334
1.4939818359375,5.432443566894531,8.760383874511719,-0.0430336907171121,0.029577335415476424,-0.0035972434964768626
1.5203180541992187,5.396530541992187,8.84178673095703,-0.05076110267250683,0.01958499236970736,-0.006128637068071691
1.5514426757812498,5.461173986816406,8.836998327636719,-0.04343338443894285,0.03903675349880447,-0.0005329249624410166
1.4867992309570313,5.453991381835937,8.911218579101561,-0.045565084288706925,0.028911179212425153,-0.010392036767599824
1.5227122558593749,5.449202978515625,8.863334545898438,-0.0401026034236865,0.030909647821578966,-0.014921898948348467
1.5586252807617187,5.446808776855469,8.930372192382812,-0.05129402763494785,0.0026646248122050836,-0.020517611053979142
1.4915876342773438,5.465962390136719,8.882488159179687,-0.044632465604435144,0.03450689131805583,-0.014522205226517705
1.5227122558593749,5.430049365234375,8.877699755859375,-0.041967840792230066,0.03144257278401998,-0.005595712105630674
1.5346832641601562,5.432443566894531,8.858546142578124,-0.0479632466196915,0.036771822408430146,0.007061255752343471
1.5227122558593749,5.418078356933593,8.832209924316405,-0.03464012255866608,0.05542419609386573,0.011457886692481857
1.4915876342773438,5.456385583496093,8.844180932617187,-0.03477335379927634,0.0479632466196915,0.0030643185340358454
1.5011644409179687,5.4707507934570305,8.798691101074219,-0.03317457891195329,0.029444104174866172,0.0073277182335639785
1.5322890624999999,5.506663818359375,8.815450512695312,-0.037171516130260915,0.04383307816077362,0.001732006127933304
1.5298948608398437,5.485116003417969,8.91840118408203,-0.049695252747624805,0.03823736605514295,0.004396630940138387
1.5322890624999999,5.449202978515625,8.904035974121093,-0.049428790266404295,0.02624655440022007,-0.004396630940138387
1.5298948608398437,5.485116003417969,8.89924757080078,-0.050361408950676076,0.022516079663132953,-0.010791730489430587
1.467645617675781,5.418078356933593,8.86094034423828,-0.0430336907171121,0.05169372135677862,-0.010658499248820334
1.4437036010742186,5.456385583496093,8.875305554199219,-0.0415681470703993,0.03357427263378405,-0.009192955602107537
1.5370774658203123,5.513846423339843,8.920795385742187,-0.03956967846124549,0.04290045947650184,-0.007860643196004996
1.4987702392578124,5.494692810058593,8.836998327636719,-0.05489127113142472,0.02571362943777905,-0.006261868308681946
1.4772224243164063,5.506663818359375,8.913612780761719,-0.04716385917602997,0.03970290970185574,-0.001732006127933304
1.455674609375,5.434837768554687,8.8872765625,-0.054225114928373445,0.023581929588014985,-0.002398162330984575
1.5155296508789062,5.427655163574219,8.91840118408203,-0.05062787143189658,0.035972434964768624,0.005196018383799912
1.5035586425781249,5.485116003417969,8.88009395751953,-0.032375191468291764,0.05062787143189658,0.0063950995492922
1.4987702392578124,5.468356591796875,8.853757739257812,-0.05102756515372735,0.03410719759622506,0.011990811654922875
1.5059528442382812,5.442020373535156,8.90643017578125,-0.033307810152563545,0.04276722823589159,0.0026646248122050836
1.4891934326171874,5.506663818359375,8.827421520996094,-0.044632465604435144,0.04743032165725048,-0.006128637068071691
1.5059528442382812,5.506663818359375,8.896853369140624,-0.0479632466196915,0.037837672333312186,-0.01505513018895872
1.5322890624999999,5.494692810058593,8.94473740234375,-0.061952526883768184,0.01971822361031762,-0.001732006127933304
1.4341267944335936,5.5258174316406246,8.839392529296875,-0.0604869832370554,0.04396630940138387,0.007860643196004996
1.4700398193359374,5.430049365234375,8.865728747558594,-0.050894333913117096,0.03890352225819422,-0.0010658499248820332
1.47482822265625,5.475539196777343,8.863334545898438,-0.04290045947650184,0.0287779479718149,-0.000799387443661525
1.4963760375976562,5.485116003417969,8.731653454589843,-0.04769678413847099,0.026379785640830326,-0.012656967857974145
1.4987702392578124,5.461173986816406,8.911218579101561,-0.049695252747624805,0.018785604926045835,-0.014522205226517705
1.5131354492187499,5.446808776855469,8.904035974121093,-0.046764165454199216,0.029444104174866172,-0.0026646248122050836
1.4173673828125,5.468356591796875,8.834604125976561,-0.0543583461689837,0.029577335415476424,-0.0009326186842717792
1.407790576171875,5.499481213378906,8.858546142578124,-0.04769678413847099,0.03877029101758396,0.008526799399056265
1.4796166259765624,5.422866760253906,8.858546142578124,-0.06475038293658353,0.0255803981971688,0.009192955602107537
1.4532804077148436,5.485116003417969,8.82981572265625,-0.06261868308681946,0.0287779479718149,0.005329249624410167
1.5442600708007812,5.475539196777343,8.892064965820312,-0.06528330789902453,0.02851148549059439,-0.00013323124061025415
1.5251064575195312,5.473144995117187,8.913612780761719,-0.06448392045536301,0.015987748873230498,-0.006928024511733216
1.47482822265625,5.442020373535156,8.882488159179687,-0.06768147023000912,0.016120980113840753,-0.002531393571594829
1.467645617675781,5.410895751953125,8.832209924316405,-0.06155283316193742,0.014655436467127957,-0.002797856052815337
1.4891934326171874,5.4707507934570305,8.901641772460938,-0.05702297098118878,0.022915773384963714,-0.009459418083328047
1.3814543579101561,5.415684155273437,8.858546142578124,-0.061952526883768184,0.01212404289553313,-0.00866003063966652
1.5442600708007812,5.5090580200195305,8.767566479492187,-0.0558238898156965,0.008526799399056265,-0.007993874436615249
1.5227122558593749,5.461173986816406,8.872911352539061,-0.06794793271122962,0.016120980113840753,0.002398162330984575
1.5346832641601562,5.3390697021484375,8.901641772460938,-0.06341807053048099,0.006528330789902454,-0.004929555902579405
1.484405029296875,5.398924743652343,8.9255837890625,-0.06528330789902453,0.026513016881440577,0.008926493120887028
1.448492004394531,5.430049365234375,8.913612780761719,-0.05462480865020421,0.046098009251147945,0.012390505376753637
1.4867992309570313,5.408501550292969,8.82263311767578,-0.06275191432742971,0.036638591167819895,0.0075941807147844875
1.4604630126953124,5.398924743652343,8.827421520996094,-0.062085758124378436,0.018918836166656093,0.0010658499248820332
1.4796166259765624,5.403713146972656,8.839392529296875,-0.054225114928373445,0.014522205226517705,-0.007194486992953725
1.5011644409179687,5.437231970214843,8.858546142578124,-0.07341041357625004,0.004663093421358896,-0.0013323124061025418
1.5466542724609373,5.396530541992187,8.836998327636719,-0.07194486992953725,0.004663093421358896,-0.003863705977697371
1.5466542724609373,5.377376928710937,8.93755479736328,-0.06648238906451683,0.009459418083328047,-0.006661562030512709
1.5394716674804687,5.360617517089843,8.870517150878905,-0.057689127184240054,0.02464777951289702,-0.006128637068071691
1.5251064575195312,5.384559533691406,8.892064965820312,-0.05462480865020421,0.026779479362661087,-0.0029310872934255917
1.4915876342773438,5.389347937011719,8.882488159179687,-0.06008728951522463,0.023049004625573973,0.002264931090374321
1.5251064575195312,5.422866760253906,8.853757739257812,-0.06768147023000912,0.02717917308449185,0.009459418083328047
1.5586252807617187,5.446808776855469,8.889670764160156,-0.06634915782390657,0.027712098046932865,0.004396630940138387
1.5514426757812498,5.4013189453125,8.932766394042968,-0.058488514627901576,0.041434915829789046,-0.0019984686091538122
1.5586252807617187,5.3390697021484375,8.801085302734375,-0.062218989364988694,0.0255803981971688,0.00159877488732305
1.5227122558593749,5.410895751953125,8.942343200683593,-0.05182695259738887,0.02531393571594829,-0.0010658499248820332
1.5729904907226562,5.360617517089843,8.865728747558594,-0.05275957128166065,0.02118376725703041,0.0009326186842717792
1.4915876342773438,5.329492895507812,8.863334545898438,-0.03930321598002497,0.037304747370871166,0.0003996937218307625
1.5490484741210937,5.403713146972656,8.932766394042968,-0.031575804024630234,0.03464012255866608,-0.014255742745297196
1.484405029296875,5.367800122070312,8.930372192382812,-0.041301684589178794,0.03424042883683532,-0.01052526800821008
1.5562310791015623,5.394136340332031,8.896853369140624,-0.025047473234727783,0.044765696845045395,0.0009326186842717792
1.5394716674804687,5.410895751953125,8.75320126953125,-0.024514548272286763,0.04436600312321464,-0.006661562030512709
1.467645617675781,5.42047255859375,8.858546142578124,-0.03397396635561481,0.04756355289786074,-0.0035972434964768626
1.4700398193359374,5.377376928710937,8.851363537597656,-0.04876263406335302,0.013323124061025418,-0.0029310872934255917
1.5203180541992187,5.398924743652343,8.865728747558594,-0.045032159326265905,0.018385911204215073,-0.00479632466196915
1.5418658691406248,5.4013189453125,8.882488159179687,-0.048895865303963275,0.01212404289553313,-0.011990811654922875
1.5514426757812498,5.377376928710937,8.920795385742187,-0.03930321598002497,-0.005062787143189658,-0.013589586542245924
1.6208745239257811,5.4779333984375,8.932766394042968,-0.036238897445989134,0.024914241994117528,-0.011457886692481857
1.5011644409179687,5.408501550292969,8.889670764160156,-0.05209341507860938,0.016520673835671518,-0.004396630940138387
1.62805712890625,5.360617517089843,8.786720092773438,-0.0430336907171121,0.04343338443894285,0.009459418083328047
1.5466542724609373,5.4013189453125,8.817844714355468,-0.04276722823589159,0.023315467106794475,-0.005062787143189658
1.5107412475585937,5.355829113769531,8.939948999023438,-0.01705359879811253,0.06928024511733216,0.011591117933092112
1.5322890624999999,5.465962390136719,8.817844714355468,-0.04170137831100955,0.01971822361031762,-0.004130168458917879
1.5227122558593749,5.463568188476562,8.942343200683593,-0.03077641658096871,0.05275957128166065,0.004263399699528133
1.5011644409179687,5.501875415039062,8.896853369140624,-0.05049464019128633,0.009059724361497283,0.0
1.5035586425781249,5.453991381835937,8.86812294921875,-0.04916232778518379,0.016254211354451008,-0.007993874436615249
1.5610194824218748,5.439626171875,8.825027319335938,-0.04862940282274277,0.0255803981971688,-0.009059724361497283
1.6112977172851561,5.463568188476562,8.942343200683593,-0.06088667695888615,0.02464777951289702,-0.008127105677225504
1.5705962890624998,5.461173986816406,8.80347950439453,-0.05022817771006582,0.04210107203284032,-0.0063950995492922
1.5155296508789062,5.360617517089843,8.865728747558594,-0.05156049011616837,0.03464012255866608,-0.009725880564548555
1.484405029296875,5.499481213378906,8.851363537597656,-0.050894333913117096,0.03943644722063524,-0.0005329249624410166
1.5682020874023437,5.463568188476562,8.815450512695312,-0.03384073511500456,0.048229709100912004,0.0033307810152563544
1.5346832641601562,5.365405920410156,8.774749084472656,-0.04236753451406082,0.02371516082862524,-0.0021316998497640663
1.5227122558593749,5.389347937011719,8.858546142578124,-0.032108728987071254,0.03144257278401998,0.0009326186842717792
1.5442600708007812,5.430049365234375,8.827421520996094,-0.03410719759622506,0.04703062793541972,0.0033307810152563544
1.5969325073242187,5.5449710449218745,8.86812294921875,-0.04729709041664023,0.009992343045769061,-0.00866003063966652
1.5083470458984374,5.348646508789062,8.882488159179687,-0.050094946469455566,0.020251148572758632,-0.010258805526989571
1.5275006591796874,5.437231970214843,8.875305554199219,-0.03757120985209167,0.03437366007744557,-0.0002664624812205083
1.4963760375976562,5.45877978515625,8.817844714355468,-0.03823736605514295,0.04063552838612752,0.0037304747370871167
1.448492004394531,5.422866760253906,8.8489693359375,-0.04036906590490701,0.035705972483548114,0.003863705977697371
1.5634136840820312,5.456385583496093,8.851363537597656,-0.04743032165725048,0.041967840792230066,0.007194486992953725
1.5107412475585937,5.453991381835937,8.89924757080078,-0.04596477801053769,0.026646248122050836,-0.002398162330984575
1.599326708984375,5.506663818359375,8.89924757080078,-0.06008728951522463,0.013856049023466432,-0.006128637068071691
1.5346832641601562,5.367800122070312,8.9255837890625,-0.061952526883768184,0.016653905076281773,-0.008127105677225504
1.5801730957031248,5.437231970214843,8.853757739257812,-0.05728943346240929,0.007860643196004996,-0.015454823910789483
1.4628572143554686,5.492298608398437,8.896853369140624,-0.048895865303963275,0.027578866806322613,-0.0127901990985844
1.5131354492187499,5.446808776855469,8.863334545898438,-0.05862174586851183,0.0,-0.020517611053979142
1.5610194824218748,5.456385583496093,8.798691101074219,-0.04876263406335302,0.03384073511500456,0.004663093421358896
1.5849614990234373,5.394136340332031,8.865728747558594,-0.048895865303963275,0.03823736605514295,0.0039969372183076245
1.6136919189453125,5.425260961914062,9.004592443847656,-0.0607534457182759,0.015987748873230498,-0.005062787143189658
1.5538368774414062,5.434837768554687,8.789114294433594,-0.044632465604435144,0.04916232778518379,-0.0009326186842717792
1.5682020874023437,5.473144995117187,8.839392529296875,-0.06435068921475276,0.022782542144353463,0.0039969372183076245
1.6041151123046875,5.413289953613281,8.796296899414061,-0.041168453348568536,0.04636447173236845,0.002264931090374321
1.5466542724609373,5.437231970214843,8.863334545898438,-0.044765696845045395,0.039969372183076245,0.0033307810152563544
1.5179238525390624,5.418078356933593,8.82263311767578,-0.04729709041664023,0.018785604926045835,-0.0030643185340358454
1.5059528442382812,5.49708701171875,8.858546142578124,-0.04250076575467108,0.049828483988235056,-0.0039969372183076245
1.484405029296875,5.439626171875,8.805873706054687,-0.06594946410207582,0.010791730489430587,0.0005329249624410166
1.4915876342773438,5.410895751953125,8.80347950439453,-0.06754823898939886,0.0074609494741742334,-0.012923430339194655
1.5538368774414062,5.439626171875,8.911218579101561,-0.05515773361264523,0.03064318534035846,-0.0003996937218307625
1.6017209106445311,5.425260961914062,8.872911352539061,-0.037304747370871166,0.0575558959436298,-0.0018652373685435584
1.5490484741210937,5.374982727050781,8.904035974121093,-0.05262634004105039,0.035972434964768624,-0.0035972434964768626
1.47482822265625,5.465962390136719,8.827421520996094,-0.05222664631921963,0.02997702913730719,0.0010658499248820332
1.6041151123046875,5.468356591796875,8.793902697753905,-0.05395865244715294,0.036771822408430146,-0.0074609494741742334
1.5179238525390624,5.418078356933593,8.920795385742187,-0.04663093421358895,0.024114854550456002,0.002797856052815337
1.5370774658203123,5.4707507934570305,8.9255837890625,-0.0464977029729787,0.027845329287543123,0.0033307810152563544
1.5777788940429687,5.418078356933593,8.877699755859375,-0.04343338443894285,0.026646248122050836,-0.0010658499248820332
1.4724340209960938,5.384559533691406,8.853757739257812,-0.045298621807486415,0.006528330789902454,-0.0127901990985844
1.5562310791015623,5.465962390136719,8.877699755859375,-0.03810413481453269,0.016787136316892024,-0.013989280264076687
1.5945383056640625,5.430049365234375,8.80347950439453,-0.04356661567955311,0.031975497746460996,-0.013989280264076687
1.4891934326171874,5.442020373535156,8.75320126953125,-0.05862174586851183,0.019318529888486854,-0.017186830038722786
1.4772224243164063,5.4779333984375,8.832209924316405,-0.03583920372415837,0.027712098046932865,-0.01532159267017923
1.5442600708007812,5.518634826660156,8.865728747558594,-0.05102756515372735,0.023581929588014985,-0.010125574286379316
1.5897499023437498,5.463568188476562,8.882488159179687,-0.05222664631921963,0.04396630940138387,0.01185758041431262
1.5251064575195312,5.446808776855469,8.86094034423828,-0.062218989364988694,0.02424808579106626,0.008926493120887028
1.5275006591796874,5.4515971801757805,8.734047656249999,-0.05662327725935802,0.03077641658096871,0.005196018383799912
1.5394716674804687,5.4013189453125,8.884882360839843,-0.06554977038024505,0.03503981628049684,0.0029310872934255917
1.5490484741210937,5.386953735351562,8.836998327636719,-0.06581623286146555,0.022249617181912446,0.0026646248122050836
1.5227122558593749,5.389347937011719,8.884882360839843,-0.05942113331217336,0.012656967857974145,-0.0019984686091538122
1.5538368774414062,5.475539196777343,8.80347950439453,-0.05022817771006582,0.04596477801053769,0.0
1.5346832641601562,5.432443566894531,8.844180932617187,-0.06794793271122962,0.017453292519943295,-0.006261868308681946
1.4915876342773438,5.4707507934570305,8.987833032226561,-0.06341807053048099,0.03011026037791744,0.0031975497746461
1.5753846923828123,5.461173986816406,8.89924757080078,-0.062085758124378436,0.02078407353519965,-0.005062787143189658
1.5849614990234373,5.461173986816406,8.872911352539061,-0.0752756509447936,0.008393568158446012,-0.006261868308681946
1.5322890624999999,5.415684155273437,8.801085302734375,-0.06275191432742971,0.022382848422522698,0.003464012255866608
1.6112977172851561,5.372588525390625,8.913612780761719,-0.06315160804926047,0.01372281778285618,0.0005329249624410166
1.6160861206054686,5.449202978515625,8.870517150878905,-0.05169372135677862,0.016254211354451008,-0.0010658499248820332
1.5849614990234373,5.372588525390625,8.89924757080078,-0.04343338443894285,0.03011026037791744,-0.0014655436467127959
1.6328455322265625,5.384559533691406,8.815450512695312,-0.04596477801053769,0.01945176112909711,-0.01572128639200999
1.6160861206054686,5.415684155273437,8.86094034423828,-0.0464977029729787,0.04769678413847099,-0.005062787143189658
1.5346832641601562,5.391742138671875,8.836998327636719,-0.04929555902579404,0.03543951000232761,0.0014655436467127959
1.5107412475585937,5.379771130371093,8.863334545898438,-0.05955436455278361,0.01572128639200999,-0.004929555902579405
1.5107412475585937,5.42047255859375,8.817844714355468,-0.05462480865020421,0.028911179212425153,0.01185758041431262
1.5538368774414062,5.449202978515625,8.851363537597656,-0.057422664703019544,0.044898928085655654,0.01185758041431262
1.6065093139648436,5.422866760253906,8.892064965820312,-0.07101225124526546,0.0305099540997482,0.0021316998497640663
1.6304513305664061,5.432443566894531,8.872911352539061,-0.07101225124526546,0.01692036755750228,-0.009459418083328047
1.5346832641601562,5.427655163574219,8.927977990722656,-0.07007963256099368,0.026113323159609816,-0.01372281778285618
1.5490484741210937,5.3199160888671875,8.916006982421875,-0.0816707504940858,0.0006661562030512709,-0.009725880564548555
1.5203180541992187,5.363011718749999,8.91840118408203,-0.03810413481453269,0.05182695259738887,-0.00013323124061025415
1.5466542724609373,5.418078356933593,8.827421520996094,-0.04663093421358895,0.013056661579804908,0.0033307810152563544
1.5897499023437498,5.358223315429687,8.870517150878905,-0.027712098046932865,0.05235987755982989,0.009992343045769061
1.5466542724609373,5.408501550292969,8.8872765625,-0.057156202221799034,-0.018252679963604822,-0.009992343045769061
1.5969325073242187,5.437231970214843,8.84178673095703,-0.04916232778518379,0.016387442595061263,-0.008526799399056265
1.618480322265625,5.406107348632812,8.911218579101561,-0.05968759579339387,0.006128637068071691,-0.013189892820415163
1.5705962890624998,5.334281298828125,8.920795385742187,-0.04783001537908124,0.029177641693645662,-0.002264931090374321
1.62805712890625,5.4013189453125,8.911218579101561,-0.06328483928987072,0.006528330789902454,-0.0031975497746461
1.5825672973632812,5.346252307128906,8.8489693359375,-0.03850382853636345,0.05076110267250683,0.004529862180748642
1.5083470458984374,5.439626171875,8.908824377441405,-0.018785604926045835,0.07274425737319877,0.0075941807147844875
1.5298948608398437,5.430049365234375,8.93755479736328,-0.03357427263378405,0.03930321598002497,-0.0013323124061025418
1.5921441040039062,5.439626171875,8.904035974121093,-0.046764165454199216,0.010924961730040842,-0.013989280264076687
1.6448165405273436,5.382165332031249,8.901641772460938,-0.04729709041664023,0.04263399699528134,-0.011457886692481857
1.5370774658203123,5.384559533691406,8.901641772460938,-0.048229709100912004,0.0302434916185277,-0.010258805526989571
1.6041151123046875,5.386953735351562,8.84178673095703,-0.03557274124293786,0.023448698347404734,-0.011990811654922875
1.618480322265625,5.437231970214843,8.88009395751953,-0.02997702913730719,0.0654165391396348,0.0009326186842717792
1.5155296508789062,5.446808776855469,8.793902697753905,-0.04236753451406082,0.04236753451406082,0.004396630940138387
1.5634136840820312,5.413289953613281,8.851363537597656,-0.03450689131805583,0.037171516130260915,-0.0010658499248820332
1.5801730957031248,5.453991381835937,8.90643017578125,-0.05275957128166065,0.006128637068071691,-0.0021316998497640663
1.5753846923828123,5.492298608398437,8.789114294433594,-0.0415681470703993,0.031042879062189218,-0.0033307810152563544
1.5705962890624998,5.403713146972656,8.901641772460938,-0.06328483928987072,-0.0033307810152563544,-0.014788667707738212
1.5562310791015623,5.377376928710937,8.872911352539061,-0.06941347635794241,-0.0415681470703993,-0.021583460978861175
1.637633935546875,5.468356591796875,8.86812294921875,-0.032375191468291764,0.05182695259738887,-0.0021316998497640663
1.5658078857421873,5.408501550292969,8.86812294921875,-0.0607534457182759,0.004396630940138387,-0.0018652373685435584
1.62805712890625,5.377376928710937,8.872911352539061,-0.06035375199644513,0.007860643196004996,-0.0073277182335639785
1.5658078857421873,5.422866760253906,8.846575134277343,-0.049695252747624805,0.012257274136143382,-0.01971822361031762
1.6711527587890624,5.422866760253906,8.808267907714843,-0.020517611053979142,0.10991577350345969,0.015987748873230498
1.5586252807617187,5.442020373535156,8.90643017578125,-0.01732006127933304,0.12084073523350053,0.02145022973825092
1.5251064575195312,5.434837768554687,8.798691101074219,-0.06981317007977318,-0.022649310903743208,-0.017719755001163805
1.5729904907226562,5.391742138671875,8.8489693359375,-0.0511607963943376,0.017852986241774057,-0.02118376725703041
1.6041151123046875,5.367800122070312,8.853757739257812,-0.04250076575467108,0.032774885190122525,-0.0030643185340358454
1.6065093139648436,5.394136340332031,8.820238916015624,-0.06634915782390657,0.01212404289553313,-0.0074609494741742334
1.5682020874023437,5.374982727050781,8.913612780761719,-0.04876263406335302,0.03956967846124549,-0.002797856052815337
1.608903515625,5.374982727050781,8.846575134277343,-0.05475803989081446,0.032508422708902016,0.0057289433462409285
1.5083470458984374,5.355829113769531,8.863334545898438,-0.040502297145517265,0.04543185304809667,0.00866003063966652
1.637633935546875,5.501875415039062,8.89924757080078,-0.0558238898156965,0.016120980113840753,0.0030643185340358454
1.5801730957031248,5.442020373535156,8.889670764160156,-0.04849617158213252,0.03144257278401998,0.004130168458917879
1.637633935546875,5.348646508789062,8.82263311767578,-0.041035222107958284,0.03503981628049684,-0.009059724361497283
1.5275006591796874,5.465962390136719,8.875305554199219,-0.04783001537908124,0.009059724361497283,-0.015454823910789483
1.5586252807617187,5.365405920410156,8.882488159179687,-0.028644716731204646,0.049562021507014546,-0.0014655436467127959
1.5634136840820312,5.499481213378906,8.743624462890624,-0.019318529888486854,0.0543583461689837,-0.007061255752343471
1.5825672973632812,5.5090580200195305,8.805873706054687,-0.046764165454199216,0.01438897398590745,-0.004396630940138387
1.5586252807617187,5.449202978515625,8.939948999023438,-0.03450689131805583,0.04929555902579404,-0.0033307810152563544
1.5370774658203123,5.504269616699219,8.796296899414061,-0.04063552838612752,0.03290811643073278,-0.0003996937218307625
1.5179238525390624,5.425260961914062,8.8872765625,-0.04383307816077362,0.0511607963943376,0.0019984686091538122
1.5753846923828123,5.42047255859375,8.908824377441405,-0.04343338443894285,0.05635681477813751,0.01185758041431262
1.5873557006835937,5.485116003417969,8.927977990722656,-0.0334410413931738,0.06141960192132717,0.004263399699528133
1.5825672973632812,5.413289953613281,8.875305554199219,-0.02624655440022007,0.056090352296917,-0.008926493120887028
1.4867992309570313,5.382165332031249,8.834604125976561,-0.03490658503988659,0.046231240491758196,-0.008793261880276773
1.5418658691406248,5.511452221679687,8.82981572265625,-0.04703062793541972,0.026379785640830326,-0.006261868308681946
1.5586252807617187,5.473144995117187,8.808267907714843,-0.037304747370871166,0.03850382853636345,-0.0026646248122050836
1.5083470458984374,5.444414575195312,8.904035974121093,-0.05076110267250683,0.016787136316892024,-0.0013323124061025418
1.4772224243164063,5.485116003417969,8.793902697753905,-0.0528928025222709,0.015588055151399738,0.0026646248122050836
1.465251416015625,5.485116003417969,8.815450512695312,-0.05915467083095285,0.022116385941302188,0.0013323124061025418
1.5298948608398437,5.425260961914062,8.820238916015624,-0.08620061267483445,-0.02078407353519965,0.007727411955394742
1.5490484741210937,5.4707507934570305,8.834604125976561,-0.09379479338961894,-0.03743797861148142,-0.016254211354451008
1.659181750488281,5.425260961914062,8.8489693359375,-0.05995405827461438,0.036771822408430146,0.005062787143189658
1.5634136840820312,5.4515971801757805,8.8489693359375,-0.05862174586851183,0.037837672333312186,0.010392036767599824
1.5634136840820312,5.446808776855469,8.781931689453124,-0.054091883687763194,0.044632465604435144,0.001732006127933304
1.5466542724609373,5.432443566894531,8.877699755859375,-0.05235987755982989,0.03930321598002497,-0.011990811654922875
1.467645617675781,5.463568188476562,8.892064965820312,-0.04916232778518379,0.03370750387439431,-0.006794793271122962
1.5897499023437498,5.444414575195312,8.858546142578124,-0.06834762643306039,0.031842266505850744,-0.0010658499248820332
1.4700398193359374,5.394136340332031,8.870517150878905,-0.07274425737319877,-0.0003996937218307625,-0.005995405827461438
1.5682020874023437,5.4707507934570305,8.786720092773438,-0.0747427259823526,0.001732006127933304,-0.004529862180748642
1.6017209106445311,5.391742138671875,8.942343200683593,-0.061952526883768184,0.011191424211261349,-0.00159877488732305
1.5897499023437498,5.365405920410156,8.894459167480468,-0.046231240491758196,0.03357427263378405,-0.0002664624812205083
1.5634136840820312,5.468356591796875,8.949525805664061,-0.050894333913117096,0.028245023009373885,0.009059724361497283
1.5346832641601562,5.372588525390625,8.813056311035156,-0.062218989364988694,0.01945176112909711,-0.0033307810152563544
1.6160861206054686,5.463568188476562,8.870517150878905,-0.06022052075583488,0.023448698347404734,-0.0057289433462409285
1.5825672973632812,5.453991381835937,8.877699755859375,-0.08060490056920376,0.004263399699528133,-0.0019984686091538122
1.5705962890624998,5.492298608398437,8.884882360839843,-0.07913935692249098,0.0075941807147844875,0.005329249624410167
1.608903515625,5.453991381835937,8.8872765625,-0.07687442583211665,0.02118376725703041,0.007061255752343471
1.62805712890625,5.394136340332031,8.856151940917968,-0.09899081177341885,-0.02011791733214838,0.0033307810152563544
1.6424223388671875,5.336675500488281,8.877699755859375,-0.07314395109502954,0.0019984686091538122,0.002398162330984575
1.7334020019531249,5.353434912109375,8.9255837890625,-0.040901990867348026,0.05209341507860938,-0.002797856052815337
1.618480322265625,5.336675500488281,8.825027319335938,-0.057689127184240054,0.008526799399056265,-0.0191852986478766
1.5107412475585937,5.348646508789062,8.877699755859375,-0.01945176112909711,0.06768147023000912,-0.010658499248820334
1.6017209106445311,5.42047255859375,8.884882360839843,-0.04663093421358895,0.011191424211261349,-0.01532159267017923
1.5514426757812498,5.4899044067382805,8.865728747558594,-0.04729709041664023,0.03064318534035846,0.0002664624812205083
1.6352397338867186,5.4779333984375,8.801085302734375,-0.08420214406568063,0.012523736617363892,0.011324655451871604
1.6400281372070311,5.374982727050781,8.932766394042968,-0.09219601850229589,0.026646248122050836,0.018119448722994567
1.6400281372070311,5.3390697021484375,8.844180932617187,-0.10631853000698281,0.0002664624812205083,0.009192955602107537
1.6711527587890624,5.305550878906249,8.851363537597656,-0.07847320071943971,0.04210107203284032,0.0
1.659181750488281,5.298368273925781,9.006986645507812,-0.06062021447766565,0.031042879062189218,0.006794793271122962
1.6304513305664061,5.284003063964843,8.884882360839843,-0.03850382853636345,0.03530627876171736,-0.010258805526989571
1.6448165405273436,5.341463903808593,8.99501563720703,-0.029843797896696934,0.027312404325102103,-0.011324655451871604
1.6328455322265625,5.3007624755859375,8.892064965820312,-0.022915773384963714,0.03916998473941472,-0.011058192970651094
1.62805712890625,5.370194323730469,8.894459167480468,-0.03863705977697371,0.021849923460081685,-0.010791730489430587
1.6448165405273436,5.425260961914062,8.920795385742187,-0.031042879062189218,0.028111791768763626,-0.005329249624410167
1.6208745239257811,5.444414575195312,8.86812294921875,-0.03877029101758396,0.037837672333312186,-0.0035972434964768626
1.637633935546875,5.427655163574219,8.916006982421875,-0.05649004601874777,0.04369984692016337,0.0037304747370871167
1.5610194824218748,5.396530541992187,8.877699755859375,-0.04596477801053769,0.05129402763494785,0.010258805526989571
1.6136919189453125,5.334281298828125,8.863334545898438,-0.05675650849996827,0.01945176112909711,0.0018652373685435584
1.618480322265625,5.358223315429687,8.889670764160156,-0.046231240491758196,0.03450689131805583,0.0018652373685435584
1.5897499023437498,5.336675500488281,8.95670841064453,-0.04369984692016337,0.036372128686599385,-0.0026646248122050836
1.5825672973632812,5.382165332031249,8.858546142578124,-0.03890352225819422,0.0334410413931738,-0.0002664624812205083
1.678335363769531,5.415684155273437,8.9255837890625,-0.040502297145517265,0.022249617181912446,-0.013323124061025418
1.5705962890624998,5.312733483886719,8.896853369140624,-0.02438131703167651,0.056090352296917,-0.010125574286379316
1.6232687255859375,5.396530541992187,8.875305554199219,-0.036505359927209644,0.04063552838612752,-0.003863705977697371
1.5610194824218748,5.453991381835937,8.856151940917968,-0.022249617181912446,0.033041347671343035,-0.010392036767599824
1.5538368774414062,5.473144995117187,8.920795385742187,-0.03956967846124549,0.02145022973825092,-0.006794793271122962
1.6208745239257811,5.398924743652343,8.82981572265625,-0.031975497746460996,0.03970290970185574,0.0019984686091538122
1.6472107421875,5.432443566894531,8.889670764160156,-0.036105666205378875,0.024914241994117528,-0.00479632466196915
1.5849614990234373,5.398924743652343,8.853757739257812,-0.0430336907171121,0.024781010753507273,-0.005329249624410167
1.599326708984375,5.403713146972656,8.947131604003905,-0.049695252747624805,0.027978560528153375,-0.0033307810152563544
1.6304513305664061,5.358223315429687,8.86094034423828,-0.026646248122050836,0.06035375199644513,-0.004929555902579405
1.6352397338867186,5.480327600097656,8.839392529296875,-0.031842266505850744,0.04023583466429676,-0.0037304747370871167
1.649604943847656,5.506663818359375,8.858546142578124,-0.036505359927209644,0.05635681477813751,-0.0029310872934255917
1.5658078857421873,5.370194323730469,8.801085302734375,-0.06421745797414251,0.02691271060327134,0.0006661562030512709
1.5705962890624998,5.3390697021484375,8.865728747558594,-0.048895865303963275,0.04809647786030175,0.0021316998497640663
1.5801730957031248,5.422866760253906,8.805873706054687,-0.049961715228845315,0.03530627876171736,0.0014655436467127959
1.5801730957031248,5.422866760253906,8.82981572265625,-0.05862174586851183,0.0433001531983326,-0.0002664624812205083
1.5538368774414062,5.286397265624999,8.901641772460938,-0.04756355289786074,0.037171516130260915,0.0039969372183076245
1.5586252807617187,5.410895751953125,8.882488159179687,-0.037304747370871166,0.03357427263378405,0.0014655436467127959
1.5753846923828123,5.442020373535156,8.827421520996094,-0.0302434916185277,0.06301837680865022,0.012923430339194655
1.5059528442382812,5.398924743652343,8.805873706054687,-0.046764165454199216,0.032375191468291764,0.0030643185340358454
1.5418658691406248,5.372588525390625,8.882488159179687,-0.0558238898156965,0.016120980113840753,-0.00013323124061025415
1.5658078857421873,5.425260961914062,8.877699755859375,-0.057156202221799034,0.03077641658096871,0.002264931090374321
1.6112977172851561,5.437231970214843,8.851363537597656,-0.05049464019128633,0.0305099540997482,0.0073277182335639785
1.6065093139648436,5.427655163574219,8.889670764160156,-0.04716385917602997,0.031176110302799476,0.0031975497746461
1.6160861206054686,5.437231970214843,8.94473740234375,-0.05182695259738887,0.036372128686599385,-0.0009326186842717792
1.618480322265625,5.324704492187499,8.86812294921875,-0.05688973974057853,0.026513016881440577,-0.0026646248122050836
1.5897499023437498,5.367800122070312,8.789114294433594,-0.03583920372415837,0.037837672333312186,-0.004529862180748642
1.5897499023437498,5.437231970214843,8.801085302734375,-0.03916998473941472,0.03503981628049684,-0.010791730489430587
1.6424223388671875,5.396530541992187,8.875305554199219,-0.053026033762881154,0.04063552838612752,-0.0013323124061025418
1.4700398193359374,5.382165332031249,8.882488159179687,-0.03503981628049684,0.04023583466429676,0.007727411955394742
1.5801730957031248,5.453991381835937,8.896853369140624,-0.03970290970185574,0.04743032165725048,0.008127105677225504
1.5203180541992187,5.42047255859375,8.8489693359375,-0.0575558959436298,0.036372128686599385,0.013989280264076687
1.5370774658203123,5.487510205078125,8.810662109374999,-0.06954670759855268,0.023448698347404734,0.007727411955394742
1.5945383056640625,5.439626171875,8.858546142578124,-0.07873966320066021,0.022382848422522698,0.011591117933092112
1.5849614990234373,5.384559533691406,8.913612780761719,-0.07247779489197827,0.01851914244482533,0.003863705977697371
1.637633935546875,5.449202978515625,8.927977990722656,-0.06435068921475276,0.04383307816077362,0.0074609494741742334
1.5658078857421873,5.394136340332031,8.94473740234375,-0.06554977038024505,0.0334410413931738,0.004396630940138387
1.6328455322265625,5.4013189453125,8.95670841064453,-0.05182695259738887,0.027578866806322613,-0.0006661562030512709
1.5729904907226562,5.434837768554687,8.877699755859375,-0.03903675349880447,0.04036906590490701,-0.009725880564548555
1.5777788940429687,5.312733483886719,8.8489693359375,-0.036505359927209644,0.027045941843881597,-0.018385911204215073
1.6041151123046875,5.379771130371093,8.894459167480468,-0.01372281778285618,0.03437366007744557,-0.02371516082862524
1.4604630126953124,5.449202978515625,8.851363537597656,-0.009725880564548555,0.03557274124293786,-0.02131699849764067
1.5562310791015623,5.463568188476562,8.808267907714843,-0.02424808579106626,0.01732006127933304,-0.0073277182335639785
1.5538368774414062,5.4515971801757805,8.8489693359375,-0.041168453348568536,0.031975497746460996,0.008793261880276773
1.6136919189453125,5.4707507934570305,8.82981572265625,-0.049695252747624805,0.05529096485325548,0.01345635530163567
1.5634136840820312,5.482721801757812,8.834604125976561,-0.08966462493070106,0.026379785640830326,0.013189892820415163
1.6017209106445311,5.389347937011719,8.872911352539061,-0.08220367545652682,0.015454823910789483,0.003464012255866608
1.5849614990234373,5.346252307128906,8.877699755859375,-0.07900612568188072,0.014788667707738212,0.0035972434964768626
1.5729904907226562,5.317521887207031,8.911218579101561,-0.04436600312321464,0.04369984692016337,-0.002797856052815337
1.5538368774414062,5.377376928710937,8.84178673095703,-0.040768759626737774,0.006128637068071691,-0.013189892820415163
1.637633935546875,5.492298608398437,8.920795385742187,-0.03490658503988659,0.013989280264076687,-0.011324655451871604
1.6136919189453125,5.523423229980469,8.86812294921875,-0.0464977029729787,0.020650842294589397,-0.005062787143189658
1.5729904907226562,5.456385583496093,8.844180932617187,-0.053026033762881154,0.02371516082862524,-0.0003996937218307625
1.5466542724609373,5.485116003417969,8.815450512695312,-0.07287748861380902,0.0035972434964768626,0.0033307810152563544
1.5801730957031248,5.430049365234375,8.827421520996094,-0.07247779489197827,0.01212404289553313,0.002398162330984575
1.6472107421875,5.365405920410156,8.875305554199219,-0.08420214406568063,0.018119448722994567,0.007993874436615249
1.6065093139648436,5.367800122070312,8.82263311767578,-0.06874732015489114,0.03037672285913795,0.004663093421358896
1.656787548828125,5.322310290527343,8.884882360839843,-0.06315160804926047,0.030909647821578966,0.002797856052815337
1.7094599853515624,5.370194323730469,8.93755479736328,-0.04210107203284032,0.05329249624410167,0.008127105677225504
1.5514426757812498,5.442020373535156,8.86094034423828,-0.059021439590342596,0.01372281778285618,-0.004663093421358896
1.5921441040039062,5.372588525390625,8.844180932617187,-0.053692189965932426,0.011724349173702367,-0.012257274136143382
1.5897499023437498,5.418078356933593,8.896853369140624,-0.04783001537908124,0.03930321598002497,-0.004263399699528133
1.5562310791015623,5.377376928710937,8.86094034423828,-0.05502450237203497,0.017986217482384312,-0.011058192970651094
1.6232687255859375,5.386953735351562,8.872911352539061,-0.041301684589178794,0.03077641658096871,-0.007860643196004996
1.6136919189453125,5.4899044067382805,8.911218579101561,-0.057422664703019544,0.008260336917835759,-0.010125574286379316
1.5586252807617187,5.437231970214843,8.920795385742187,-0.049695252747624805,0.03703828488965066,0.011058192970651094
1.6065093139648436,5.4013189453125,8.846575134277343,-0.06008728951522463,0.03503981628049684,0.01185758041431262
1.5705962890624998,5.358223315429687,8.901641772460938,-0.06634915782390657,0.02398162330984575,0.005196018383799912
1.6519991455078125,5.42047255859375,8.90643017578125,-0.06808116395183987,0.015588055151399738,-0.002797856052815337
1.5586252807617187,5.389347937011719,8.8489693359375,-0.06155283316193742,0.031575804024630234,0.0031975497746461
1.6328455322265625,5.42047255859375,8.86812294921875,-0.06781470147061937,0.014122511504686942,-0.0026646248122050836
1.62805712890625,5.346252307128906,8.963891015625,-0.06914701387672191,0.021849923460081685,0.0057289433462409285
1.6519991455078125,5.291185668945312,8.827421520996094,-0.06608269534268607,0.02118376725703041,0.002398162330984575
1.6735469604492186,5.331887097167969,8.90643017578125,-0.05542419609386573,0.03011026037791744,-0.003464012255866608
1.608903515625,5.334281298828125,8.817844714355468,-0.05022817771006582,0.028111791768763626,-0.003863705977697371
1.6328455322265625,5.379771130371093,8.954314208984375,-0.054091883687763194,0.033041347671343035,-0.002797856052815337
1.5969325073242187,5.3390697021484375,8.884882360839843,-0.04769678413847099,0.036505359927209644,-0.0029310872934255917
1.608903515625,5.367800122070312,8.904035974121093,-0.049828483988235056,0.021849923460081685,-0.00479632466196915
1.6472107421875,5.425260961914062,8.947131604003905,-0.049828483988235056,0.024114854550456002,-0.003863705977697371
1.6304513305664061,5.377376928710937,8.95670841064453,-0.049029096544573526,0.032774885190122525,-0.006261868308681946
1.5969325073242187,5.322310290527343,8.844180932617187,-0.046764165454199216,0.025047473234727783,-0.002797856052815337
1.6472107421875,5.379771130371093,8.968679418945312,-0.048229709100912004,0.024114854550456002,-0.006528330789902454
1.6256629272460936,5.329492895507812,8.877699755859375,-0.03757120985209167,0.054091883687763194,-0.004529862180748642
1.6065093139648436,5.3390697021484375,8.947131604003905,-0.04663093421358895,0.02971056665608668,-0.002797856052815337
1.5777788940429687,5.456385583496093,8.88009395751953,-0.045298621807486415,0.03410719759622506,-0.006794793271122962
1.6256629272460936,5.291185668945312,8.901641772460938,-0.05209341507860938,0.03011026037791744,-0.0026646248122050836
1.6807295654296874,5.377376928710937,8.872911352539061,-0.04263399699528134,0.03144257278401998,-0.0029310872934255917
1.6543933471679686,5.377376928710937,8.858546142578124,-0.03557274124293786,0.06141960192132717,-0.0039969372183076245
1.5969325073242187,5.374982727050781,8.834604125976561,-0.0433001531983326,0.031842266505850744,0.0002664624812205083
1.6208745239257811,5.358223315429687,8.908824377441405,-0.03264165394951227,0.024914241994117528,-0.009725880564548555
1.608903515625,5.384559533691406,8.827421520996094,-0.022116385941302188,0.03503981628049684,-0.014655436467127957
1.5753846923828123,5.410895751953125,8.927977990722656,-0.03384073511500456,0.029310872934255914,-0.010258805526989571
1.6232687255859375,5.374982727050781,8.875305554199219,-0.033041347671343035,0.024914241994117528,-0.009459418083328047
1.6304513305664061,5.396530541992187,8.86094034423828,-0.03863705977697371,0.0287779479718149,-0.0057289433462409285
1.7238251953125,5.410895751953125,8.927977990722656,-0.0511607963943376,0.027712098046932865,-0.007727411955394742
1.5705962890624998,5.377376928710937,8.870517150878905,-0.05235987755982989,0.027045941843881597,-0.00866003063966652
1.5370774658203123,5.358223315429687,8.932766394042968,-0.024514548272286763,0.05182695259738887,-0.010125574286379316
1.5801730957031248,5.45877978515625,8.858546142578124,-0.040901990867348026,0.027712098046932865,-0.0011990811654922875
1.649604943847656,5.473144995117187,8.875305554199219,-0.04543185304809667,0.035173047521107094,0.0011990811654922875
1.5729904907226562,5.382165332031249,8.870517150878905,-0.04236753451406082,0.025180704475338038,0.0035972434964768626
1.608903515625,5.396530541992187,8.94473740234375,-0.03943644722063524,0.023848392069235495,-0.0037304747370871167
1.5969325073242187,5.418078356933593,8.913612780761719,-0.03863705977697371,0.015987748873230498,-0.017986217482384312
1.5921441040039062,5.449202978515625,8.892064965820312,-0.036505359927209644,0.0334410413931738,-0.007194486992953725
1.6041151123046875,5.351040710449219,8.999804040527343,-0.037171516130260915,0.045298621807486415,-0.002531393571594829
1.5634136840820312,5.370194323730469,8.834604125976561,-0.03703828488965066,0.03797090357392244,-0.009059724361497283
1.6519991455078125,5.482721801757812,8.904035974121093,-0.046764165454199216,0.032508422708902016,-0.010924961730040842
1.6328455322265625,5.4515971801757805,8.89924757080078,-0.049828483988235056,0.031042879062189218,-0.008793261880276773
1.5825672973632812,5.408501550292969,8.896853369140624,-0.054091883687763194,0.02145022973825092,-0.007993874436615249
1.6304513305664061,5.389347937011719,8.89924757080078,-0.04063552838612752,0.016120980113840753,-0.013989280264076687
1.6304513305664061,5.439626171875,8.815450512695312,-0.03943644722063524,0.03810413481453269,-0.011724349173702367
1.5562310791015623,5.427655163574219,8.942343200683593,-0.037171516130260915,0.05329249624410167,0.001732006127933304
1.5729904907226562,5.386953735351562,8.853757739257812,-0.037304747370871166,0.022915773384963714,-0.005329249624410167
1.608903515625,5.406107348632812,8.743624462890624,-0.03770444109270193,0.03863705977697371,0.005196018383799912
1.62805712890625,5.377376928710937,8.820238916015624,-0.03863705977697371,0.03464012255866608,0.0029310872934255917
1.6065093139648436,5.475539196777343,8.82981572265625,-0.03903675349880447,0.029310872934255914,-0.0031975497746461
1.6232687255859375,5.5090580200195305,8.901641772460938,-0.04316692195772235,0.04836294034152226,-0.004529862180748642
1.6112977172851561,5.355829113769531,8.86094034423828,-0.057955589665460557,0.026779479362661087,0.0057289433462409285
1.5801730957031248,5.3390697021484375,8.825027319335938,-0.044232771882604376,0.03424042883683532,-0.0013323124061025418
1.637633935546875,5.494692810058593,8.9255837890625,-0.033307810152563545,0.04543185304809667,-0.0002664624812205083
1.62805712890625,5.415684155273437,8.817844714355468,-0.03970290970185574,0.032774885190122525,0.0
1.608903515625,5.453991381835937,8.722076647949219,-0.04343338443894285,0.02371516082862524,-0.009326186842717792
1.637633935546875,5.389347937011719,8.858546142578124,-0.05649004601874777,0.01985145485092787,-0.0037304747370871167
1.6256629272460936,5.482721801757812,8.851363537597656,-0.049961715228845315,0.021983154700691936,-0.004396630940138387
1.5705962890624998,5.449202978515625,8.820238916015624,-0.05262634004105039,0.0369050536490404,0.0010658499248820332
1.5705962890624998,5.410895751953125,8.82263311767578,-0.048895865303963275,0.03983614094246599,0.008260336917835759
1.5729904907226562,5.499481213378906,8.923189587402343,-0.04263399699528134,0.05062787143189658,0.006928024511733216
1.5514426757812498,5.425260961914062,8.894459167480468,-0.04569831552931718,0.036771822408430146,-0.0031975497746461
1.5849614990234373,5.456385583496093,8.82981572265625,-0.036238897445989134,0.041301684589178794,-0.003464012255866608
1.5849614990234373,5.45877978515625,8.844180932617187,-0.0464977029729787,0.03011026037791744,-0.004529862180748642
1.5682020874023437,5.434837768554687,8.836998327636719,-0.04223430327345057,0.03943644722063524,0.0013323124061025418
1.6112977172851561,5.4707507934570305,8.82263311767578,-0.04223430327345057,0.03557274124293786,0.0011990811654922875
1.5777788940429687,5.504269616699219,8.84178673095703,-0.061686064402547675,0.022116385941302188,-0.0026646248122050836
1.5945383056640625,5.363011718749999,8.858546142578124,-0.06062021447766565,0.029444104174866172,0.001732006127933304
1.5610194824218748,5.432443566894531,8.755595471191405,-0.05555742733447598,0.017586523760553547,0.002264931090374321
1.5610194824218748,5.461173986816406,8.8489693359375,-0.046764165454199216,0.027845329287543123,-0.00866003063966652
1.6256629272460936,5.576095666503906,8.86094034423828,-0.03956967846124549,0.037304747370871166,-0.0073277182335639785
1.4867992309570313,5.4779333984375,8.80347950439453,-0.05209341507860938,0.026379785640830326,-0.008393568158446012
1.5634136840820312,5.434837768554687,8.767566479492187,-0.04836294034152226,0.03450689131805583,0.0030643185340358454
1.5179238525390624,5.413289953613281,8.870517150878905,-0.035972434964768624,0.032774885190122525,-0.0033307810152563544
1.5394716674804687,5.442020373535156,8.949525805664061,-0.049029096544573526,0.014921898948348467,0.006794793271122962
1.5705962890624998,5.506663818359375,8.875305554199219,-0.0543583461689837,0.021716692219471426,0.007194486992953725
1.6328455322265625,5.456385583496093,8.836998327636719,-0.05942113331217336,0.02424808579106626,0.007727411955394742
1.5945383056640625,5.425260961914062,8.875305554199219,-0.061686064402547675,0.02744563556571236,0.0019984686091538122
1.6735469604492186,5.453991381835937,8.865728747558594,-0.06435068921475276,0.031575804024630234,0.005062787143189658
1.6136919189453125,5.475539196777343,8.908824377441405,-0.06461715169597326,0.02997702913730719,-0.0014655436467127959
1.5753846923828123,5.403713146972656,8.82981572265625,-0.049828483988235056,0.037304747370871166,-0.006528330789902454
1.5394716674804687,5.530605834960937,8.801085302734375,-0.06581623286146555,0.01185758041431262,-0.0031975497746461
1.599326708984375,5.430049365234375,8.932766394042968,-0.06155283316193742,0.018119448722994567,-0.004263399699528133
1.5897499023437498,5.432443566894531,8.8489693359375,-0.06861408891428089,0.016520673835671518,-0.0021316998497640663
1.5705962890624998,5.434837768554687,8.875305554199219,-0.06315160804926047,0.0191852986478766,-0.006528330789902454
1.6041151123046875,5.42047255859375,8.89924757080078,-0.07287748861380902,0.020251148572758632,-0.003464012255866608
1.5562310791015623,5.408501550292969,8.750807067871094,-0.06408422673353224,0.03130934154340973,0.0003996937218307625
1.5729904907226562,5.398924743652343,8.8489693359375,-0.05955436455278361,0.029310872934255914,0.002398162330984575
1.618480322265625,5.377376928710937,8.923189587402343,-0.05675650849996827,0.033041347671343035,0.003863705977697371
1.6017209106445311,5.449202978515625,8.836998327636719,-0.054091883687763194,0.029177641693645662,0.005062787143189658
1.6424223388671875,5.410895751953125,8.875305554199219,-0.058355283387291325,0.02598009191899956,0.00159877488732305
1.62805712890625,5.408501550292969,8.832209924316405,-0.06821439519245012,0.02717917308449185,-0.004529862180748642
1.6208745239257811,5.430049365234375,8.863334545898438,-0.06594946410207582,0.016120980113840753,-0.006661562030512709
1.668758557128906,5.346252307128906,8.846575134277343,-0.0654165391396348,0.03357427263378405,-0.0037304747370871167
1.5729904907226562,5.312733483886719,8.82981572265625,-0.06261868308681946,0.0039969372183076245,-0.005995405827461438
1.659181750488281,5.391742138671875,8.834604125976561,-0.031975497746460996,0.04596477801053769,-0.007860643196004996
1.6160861206054686,5.542576843261719,8.90643017578125,-0.06554977038024505,0.016120980113840753,-0.0031975497746461
1.6615759521484375,5.42047255859375,8.966285217285156,-0.07367687605747056,0.016787136316892024,0.004529862180748642
1.5873557006835937,5.403713146972656,8.88009395751953,-0.06594946410207582,0.01958499236970736,0.0058621745868511835
1.5945383056640625,5.377376928710937,8.858546142578124,-0.07087902000465522,0.012257274136143382,0.0018652373685435584
1.5897499023437498,5.408501550292969,8.872911352539061,-0.061952526883768184,0.048229709100912004,0.0033307810152563544
1.6112977172851561,5.3199160888671875,8.801085302734375,-0.05675650849996827,0.03930321598002497,0.0026646248122050836
1.5825672973632812,5.456385583496093,8.93755479736328,-0.057955589665460557,0.03077641658096871,-0.0013323124061025418
1.5705962890624998,5.403713146972656,8.896853369140624,-0.06754823898939886,0.01532159267017923,-0.0021316998497640663
1.5945383056640625,5.4013189453125,8.911218579101561,-0.04636447173236845,0.04769678413847099,0.0030643185340358454
1.5945383056640625,5.370194323730469,8.932766394042968,-0.04769678413847099,0.02571362943777905,-0.0057289433462409285
1.5658078857421873,5.432443566894531,8.904035974121093,-0.05235987755982989,0.022782542144353463,-0.006128637068071691
1.5801730957031248,5.379771130371093,8.858546142578124,-0.04756355289786074,0.02145022973825092,-0.007860643196004996
1.6448165405273436,5.343858105468749,8.913612780761719,-0.06261868308681946,0.01971822361031762,-0.0026646248122050836
1.5849614990234373,5.353434912109375,8.920795385742187,-0.041834609551619814,0.023182235866184224,-0.006261868308681946
1.637633935546875,5.377376928710937,8.930372192382812,-0.04223430327345057,0.028245023009373885,-0.009992343045769061
1.6256629272460936,5.382165332031249,8.84178673095703,-0.04210107203284032,0.04036906590490701,-0.002531393571594829
1.6328455322265625,5.415684155273437,8.863334545898438,-0.0514272588755581,0.017453292519943295,-0.004396630940138387
1.6615759521484375,5.408501550292969,8.894459167480468,-0.03450689131805583,0.044765696845045395,-0.005329249624410167
1.5873557006835937,5.413289953613281,8.813056311035156,-0.04916232778518379,0.01732006127933304,-0.003464012255866608
1.6160861206054686,5.358223315429687,8.904035974121093,-0.050094946469455566,0.0075941807147844875,-0.0037304747370871167
1.6424223388671875,5.322310290527343,8.86812294921875,-0.037304747370871166,0.03956967846124549,0.003863705977697371
1.659181750488281,5.374982727050781,8.89924757080078,-0.05688973974057853,0.005462480865020421,-0.005062787143189658
1.659181750488281,5.367800122070312,8.808267907714843,-0.03810413481453269,0.02971056665608668,-0.007194486992953725
1.68551796875,5.425260961914062,8.882488159179687,-0.048895865303963275,0.028111791768763626,-0.0074609494741742334
1.6232687255859375,5.406107348632812,8.930372192382812,-0.045032159326265905,0.044232771882604376,-0.008926493120887028
1.649604943847656,5.374982727050781,8.908824377441405,-0.057955589665460557,0.013989280264076687,-0.0003996937218307625
1.5849614990234373,5.379771130371093,8.975862023925782,-0.05235987755982989,0.026646248122050836,-0.003863705977697371
1.62805712890625,5.379771130371093,8.939948999023438,-0.04356661567955311,0.026646248122050836,-0.0005329249624410166
1.6017209106445311,5.351040710449219,8.875305554199219,-0.053558958725322174,0.012523736617363892,-0.0019984686091538122
1.6136919189453125,5.363011718749999,8.93755479736328,-0.03823736605514295,0.03317457891195329,0.0
1.6927005737304686,5.442020373535156,8.863334545898438,-0.045565084288706925,0.02078407353519965,-0.005595712105630674
1.6831237670898436,5.427655163574219,8.901641772460938,-0.03877029101758396,0.041035222107958284,-0.0037304747370871167
1.659181750488281,5.374982727050781,8.863334545898438,-0.044898928085655654,0.0287779479718149,0.002398162330984575
1.6328455322265625,5.334281298828125,8.853757739257812,-0.028911179212425153,0.03863705977697371,-0.0037304747370871167
1.5729904907226562,5.370194323730469,8.82263311767578,-0.0383705972957532,0.021716692219471426,-0.0035972434964768626
1.6328455322265625,5.461173986816406,8.786720092773438,-0.053558958725322174,0.014655436467127957,-0.006528330789902454
1.5969325073242187,5.415684155273437,8.884882360839843,-0.053159265003491406,0.028378254249984136,-0.0026646248122050836
1.6519991455078125,5.315127685546875,8.884882360839843,-0.053026033762881154,0.0014655436467127959,-0.004529862180748642
1.7022773803710936,5.370194323730469,8.89924757080078,-0.031575804024630234,0.05076110267250683,-0.0011990811654922875
1.62805712890625,5.427655163574219,8.90643017578125,-0.04356661567955311,0.03490658503988659,-0.004130168458917879
1.6041151123046875,5.403713146972656,8.82981572265625,-0.04290045947650184,0.0369050536490404,0.00013323124061025415
1.66636435546875,5.343858105468749,8.853757739257812,-0.04210107203284032,0.03424042883683532,-0.008260336917835759
1.6136919189453125,5.351040710449219,8.901641772460938,-0.03757120985209167,0.03290811643073278,-0.007061255752343471
1.5849614990234373,5.49708701171875,8.949525805664061,-0.04236753451406082,0.0287779479718149,-0.013323124061025418
1.649604943847656,5.389347937011719,8.78432589111328,-0.04916232778518379,0.02011791733214838,-0.007993874436615249
1.6400281372070311,5.403713146972656,8.827421520996094,-0.04356661567955311,0.03890352225819422,0.00013323124061025415
