ax,ay,az,gx,gy,gz
-0.040701428222656245,0.97683427734375,10.517727893066406,-0.6272526807930765,-0.11790964794007493,0.6672220529761528
0.011971008300781249,1.0319009155273438,10.570400329589843,-0.053159265003491406,0.023848392069235495,-0.006128637068071691
0.031124621582031248,0.9792284790039062,10.47702646484375,-0.044099540641994124,0.024114854550456002,-0.0037304747370871167
0.05746083984375,0.9217676391601562,10.491391674804687,-0.040502297145517265,0.02011791733214838,-0.004929555902579405
0.009576806640625,0.9504980590820312,10.632649572753905,-0.03916998473941472,0.029444104174866172,0.0033307810152563544
0.031124621582031248,0.9337386474609375,10.491391674804687,-0.040768759626737774,0.02584686067838931,-0.002264931090374321
0.08140285644531249,1.0773907470703123,10.570400329589843,-0.04036906590490701,0.031042879062189218,-0.002398162330984575
0.00718260498046875,1.0869675537109373,10.51533369140625,-0.04689739669480947,0.0433001531983326,0.00013323124061025415
0.0526724365234375,0.9888052856445312,10.572794531249999,-0.0479632466196915,0.036505359927209644,0.00013323124061025415
0.02633621826171875,0.9935936889648437,10.532093103027343,-0.04783001537908124,0.036238897445989134,0.0006661562030512709
0.00718260498046875,0.9313444458007812,10.568006127929687,-0.05022817771006582,0.03397396635561481,-0.0021316998497640663
-0.011971008300781249,0.9983820922851562,10.565611926269531,-0.053159265003491406,0.03264165394951227,0.0006661562030512709
-0.047884033203124995,1.0103531005859374,10.613495959472656,-0.040768759626737774,0.026779479362661087,0.0006661562030512709
0.02633621826171875,0.9193734375,10.465055456542968,-0.04170137831100955,0.027978560528153375,-0.003464012255866608
-0.011971008300781249,1.0031704956054688,10.558429321289061,-0.03490658503988659,0.018385911204215073,-0.004663093421358896
0.05746083984375,1.0031704956054688,10.627861169433594,-0.045298621807486415,0.01971822361031762,0.000799387443661525
0.076614453125,0.9313444458007812,10.568006127929687,-0.04876263406335302,0.02105053601642016,-0.0033307810152563544
-0.0143652099609375,1.0103531005859374,10.59194814453125,-0.0415681470703993,0.02438131703167651,-0.0037304747370871167
0.009576806640625,1.005564697265625,10.520122094726561,-0.0479632466196915,0.027845329287543123,0.0003996937218307625
0.09816226806640624,0.93852705078125,10.651803186035156,-0.04729709041664023,0.04636447173236845,0.0011990811654922875
0.0,0.9816226806640624,10.632649572753905,-0.04596477801053769,0.035705972483548114,-0.004396630940138387
-0.05746083984375,1.01514150390625,10.579977136230468,-0.05062787143189658,0.0401026034236865,-0.0035972434964768626
-0.028730419921875,0.9720458740234375,10.577582934570312,-0.045165390566876164,0.0305099540997482,-0.0026646248122050836
0.0383072265625,0.9457096557617187,10.541669909667968,-0.045565084288706925,0.031575804024630234,-0.003863705977697371
0.0430956298828125,0.9624690673828125,10.682927807617187,-0.04703062793541972,0.03130934154340973,-0.007061255752343471
-0.031124621582031248,1.0534487304687499,10.606313354492187,-0.04743032165725048,0.02904441045303541,0.0
0.0718260498046875,0.9361328491210937,10.539275708007812,-0.046231240491758196,0.027978560528153375,-0.006661562030512709
0.02633621826171875,1.0007762939453124,10.558429321289061,-0.050361408950676076,0.03011026037791744,-0.005595712105630674
0.05985504150390625,0.9313444458007812,10.524910498046875,-0.04743032165725048,0.03130934154340973,-0.0035972434964768626
0.00718260498046875,1.0127473022460938,10.582371337890624,-0.049961715228845315,0.02624655440022007,-0.0009326186842717792
0.040701428222656245,1.0319009155273438,10.565611926269531,-0.0479632466196915,0.028911179212425153,-0.0037304747370871167
-0.0047884033203125,0.9648632690429687,10.539275708007812,-0.05022817771006582,0.03424042883683532,-0.0029310872934255917
0.09576806640624999,0.9840168823242187,10.568006127929687,-0.049428790266404295,0.03384073511500456,-0.007860643196004996
0.00718260498046875,1.0295067138671874,10.608707556152343,-0.05329249624410167,0.021583460978861175,-0.004130168458917879
0.06703764648437499,0.9337386474609375,10.563217724609375,-0.053026033762881154,0.03530627876171736,-0.006928024511733216
0.06703764648437499,0.97683427734375,10.579977136230468,-0.041301684589178794,0.018785604926045835,-0.005462480865020421
0.05027823486328125,1.0534487304687499,10.520122094726561,-0.046764165454199216,0.026379785640830326,-0.0031975497746461
0.0047884033203125,1.0175357055664063,10.589553942871094,-0.05342572748471192,0.03370750387439431,-0.00013323124061025415
0.028730419921875,0.928950244140625,10.54645831298828,-0.05076110267250683,0.03011026037791744,-0.0021316998497640663
-0.009576806640625,0.9504980590820312,10.587159741210938,-0.05062787143189658,0.03144257278401998,-0.0037304747370871167
0.10295067138671875,0.9457096557617187,10.572794531249999,-0.04849617158213252,0.0287779479718149,-0.005062787143189658
-0.00239420166015625,1.0462661254882812,10.560823522949217,-0.05156049011616837,0.032108728987071254,-0.003464012255866608
0.040701428222656245,0.9074024291992187,10.673351000976561,-0.05156049011616837,0.025447166956558548,-0.004396630940138387
0.086191259765625,0.9576806640625,10.532093103027343,-0.04836294034152226,0.02598009191899956,-0.005329249624410167
0.0,1.005564697265625,10.51533369140625,-0.045032159326265905,0.01971822361031762,-0.0026646248122050836
0.047884033203124995,0.967257470703125,10.601524951171875,-0.048229709100912004,0.03863705977697371,0.0018652373685435584
0.076614453125,0.9457096557617187,10.500968481445312,-0.0514272588755581,0.03397396635561481,-0.00479632466196915
-0.05746083984375,0.9624690673828125,10.620678564453124,-0.05049464019128633,0.023182235866184224,-0.0037304747370871167
0.076614453125,1.0007762939453124,10.594342346191405,-0.05529096485325548,0.037304747370871166,0.0018652373685435584
-0.00239420166015625,0.9361328491210937,10.589553942871094,-0.045165390566876164,0.035705972483548114,0.0002664624812205083
0.03591302490234375,0.9744400756835937,10.587159741210938,-0.04809647786030175,0.03424042883683532,-0.0010658499248820332
0.00718260498046875,0.9983820922851562,10.582371337890624,-0.04876263406335302,0.025180704475338038,-0.0035972434964768626
0.06943184814453125,0.9600748657226562,10.572794531249999,-0.04916232778518379,0.027712098046932865,-0.002264931090374321
0.05027823486328125,0.9959878906249999,10.582371337890624,-0.04769678413847099,0.029177641693645662,-0.0058621745868511835
0.12449848632812499,0.9648632690429687,10.505756884765624,-0.04250076575467108,0.03477335379927634,-0.0031975497746461
0.04548983154296875,0.9935936889648437,10.59194814453125,-0.04769678413847099,0.02904441045303541,0.0019984686091538122
0.06464344482421874,0.9552864624023437,10.637437976074217,-0.04929555902579404,0.044099540641994124,-0.001732006127933304
-0.00239420166015625,0.9361328491210937,10.510545288085936,-0.048229709100912004,0.036238897445989134,-0.0037304747370871167
0.00718260498046875,0.967257470703125,10.627861169433594,-0.0514272588755581,0.02131699849764067,-0.009725880564548555
0.062249243164062495,1.0103531005859374,10.541669909667968,-0.044232771882604376,0.031042879062189218,-0.004663093421358896
0.01915361328125,1.0821791503906248,10.647014782714843,-0.050361408950676076,0.035972434964768624,-0.0035972434964768626
0.0430956298828125,0.93852705078125,10.64222637939453,-0.05502450237203497,0.03264165394951227,-0.004663093421358896
0.009576806640625,1.024718310546875,10.611101757812499,-0.044632465604435144,0.029444104174866172,-0.004263399699528133
-0.0047884033203125,1.0438719238281249,10.639832177734375,-0.04849617158213252,0.025447166956558548,-0.00479632466196915
-0.033518823242187495,1.0031704956054688,10.582371337890624,-0.0514272588755581,0.031975497746460996,-0.00159877488732305
0.028730419921875,0.97683427734375,10.608707556152343,-0.05209341507860938,0.04316692195772235,0.000799387443661525
0.011971008300781249,1.0534487304687499,10.541669909667968,-0.046231240491758196,0.022516079663132953,-0.004130168458917879
0.00239420166015625,1.0319009155273438,10.572794531249999,-0.049562021507014546,0.03170903526524049,-0.00013323124061025415
0.031124621582031248,0.9600748657226562,10.59194814453125,-0.04716385917602997,0.03357427263378405,-0.0031975497746461
-0.009576806640625,1.0486603271484374,10.582371337890624,-0.04743032165725048,0.036505359927209644,-0.0031975497746461
0.0,1.005564697265625,10.582371337890624,-0.04783001537908124,0.022116385941302188,-0.004929555902579405
0.023942016601562498,0.9911994873046874,10.510545288085936,-0.04783001537908124,0.02531393571594829,-0.0002664624812205083
0.02633621826171875,1.0797849487304687,10.579977136230468,-0.0433001531983326,0.014255742745297196,-0.007860643196004996
0.023942016601562498,0.97683427734375,10.62307276611328,-0.04543185304809667,0.020650842294589397,-0.002531393571594829
0.05027823486328125,1.0295067138671874,10.635043774414061,-0.049428790266404295,0.036238897445989134,-0.0009326186842717792
0.02154781494140625,0.9576806640625,10.50815108642578,-0.049562021507014546,0.03743797861148142,-0.005462480865020421
0.086191259765625,0.9241618408203125,10.587159741210938,-0.04743032165725048,0.03077641658096871,-0.0029310872934255917
-0.023942016601562498,0.9241618408203125,10.50815108642578,-0.04862940282274277,0.033041347671343035,-0.004130168458917879
0.00718260498046875,1.024718310546875,10.572794531249999,-0.050894333913117096,0.027578866806322613,-0.0035972434964768626
-0.011971008300781249,0.9935936889648437,10.582371337890624,-0.05462480865020421,0.022249617181912446,-0.006261868308681946
0.0526724365234375,0.9504980590820312,10.556035119628906,-0.0464977029729787,0.023848392069235495,-0.008793261880276773
0.040701428222656245,0.9888052856445312,10.568006127929687,-0.0479632466196915,0.02531393571594829,-0.006928024511733216
0.0047884033203125,1.0031704956054688,10.560823522949217,-0.050894333913117096,0.03903675349880447,-0.002797856052815337
0.028730419921875,0.9409212524414062,10.58476553955078,-0.04396630940138387,0.027845329287543123,-0.008526799399056265
0.028730419921875,1.0127473022460938,10.541669909667968,-0.049029096544573526,0.03943644722063524,-0.00013323124061025415
0.03591302490234375,0.928950244140625,10.544064111328124,-0.0479632466196915,0.0334410413931738,0.0006661562030512709
-0.047884033203124995,1.0534487304687499,10.565611926269531,-0.04876263406335302,0.036505359927209644,0.0039969372183076245
-0.016759411621093748,0.9145850341796874,10.606313354492187,-0.0528928025222709,0.03757120985209167,0.004663093421358896
0.028730419921875,0.9720458740234375,10.603919152832031,-0.049029096544573526,0.03557274124293786,-0.0009326186842717792
-0.028730419921875,0.9935936889648437,10.587159741210938,-0.04689739669480947,0.0305099540997482,-0.0039969372183076245
0.06703764648437499,0.948103857421875,10.558429321289061,-0.049428790266404295,0.026113323159609816,-0.004663093421358896
0.05985504150390625,0.9792284790039062,10.663774194335938,-0.049961715228845315,0.01945176112909711,-0.00479632466196915
0.0526724365234375,0.9720458740234375,10.534487304687499,-0.04543185304809667,0.02371516082862524,-0.0035972434964768626
-0.03591302490234375,1.0558429321289062,10.582371337890624,-0.04849617158213252,0.03530627876171736,0.0010658499248820332
0.0526724365234375,0.9337386474609375,10.50815108642578,-0.041967840792230066,0.03503981628049684,-0.0030643185340358454
0.031124621582031248,0.9983820922851562,10.527304699707031,-0.05076110267250683,0.028644716731204646,-0.005062787143189658
0.02154781494140625,0.9935936889648437,10.572794531249999,-0.05102756515372735,0.024514548272286763,-0.008793261880276773
-0.03591302490234375,0.9840168823242187,10.570400329589843,-0.04663093421358895,0.02464777951289702,-0.004663093421358896
-0.04548983154296875,0.9576806640625,10.544064111328124,-0.04769678413847099,0.033307810152563545,-0.0029310872934255917
0.03591302490234375,0.8978256225585937,10.625466967773438,-0.04769678413847099,0.028111791768763626,-0.0005329249624410166
0.00718260498046875,1.0319009155273438,10.649408984374999,-0.040502297145517265,0.029310872934255914,-0.0009326186842717792
0.03591302490234375,0.9097966308593749,10.568006127929687,-0.045032159326265905,0.03583920372415837,0.0021316998497640663
0.028730419921875,1.0031704956054688,10.606313354492187,-0.045298621807486415,0.03370750387439431,-0.002531393571594829
-0.02633621826171875,0.9792284790039062,10.565611926269531,-0.04849617158213252,0.04343338443894285,0.00013323124061025415
-0.03591302490234375,0.9504980590820312,10.579977136230468,-0.04170137831100955,0.02531393571594829,-0.0003996937218307625
0.09576806640624999,1.0845733520507812,10.64222637939453,-0.04250076575467108,0.016787136316892024,-0.004263399699528133
0.040701428222656245,0.9624690673828125,10.551246716308594,-0.044099540641994124,0.041035222107958284,0.0014655436467127959
-0.011971008300781249,0.8810662109374999,10.618284362792968,-0.04276722823589159,0.04569831552931718,0.002398162330984575
0.009576806640625,1.0869675537109373,10.589553942871094,-0.03916998473941472,0.02131699849764067,-0.0075941807147844875
0.0430956298828125,0.9935936889648437,10.611101757812499,-0.04596477801053769,0.03130934154340973,-0.005595712105630674
-0.00239420166015625,0.9888052856445312,10.558429321289061,-0.04569831552931718,0.02464777951289702,-0.0014655436467127959
0.09816226806640624,0.9816226806640624,10.613495959472656,-0.046764165454199216,0.028111791768763626,-0.0021316998497640663
0.03591302490234375,0.9935936889648437,10.520122094726561,-0.044632465604435144,0.020917304775809907,-0.005196018383799912
0.047884033203124995,0.9696516723632812,10.635043774414061,-0.04689739669480947,0.04263399699528134,0.002531393571594829
-0.031124621582031248,0.9720458740234375,10.517727893066406,-0.04729709041664023,0.04223430327345057,0.0002664624812205083
0.00718260498046875,1.0319009155273438,10.503362683105468,-0.04929555902579404,0.029310872934255914,-0.0033307810152563544
0.00718260498046875,1.0199299072265624,10.50815108642578,-0.046098009251147945,0.0255803981971688,-0.005462480865020421
0.0383072265625,1.0103531005859374,10.611101757812499,-0.050094946469455566,0.02571362943777905,-0.005196018383799912
0.031124621582031248,0.9983820922851562,10.558429321289061,-0.04929555902579404,0.0095926493239383,-0.004929555902579405
-0.0143652099609375,1.01514150390625,10.551246716308594,-0.053692189965932426,0.015188361429568975,-0.000799387443661525
0.07900865478515624,0.9002198242187499,10.558429321289061,-0.046231240491758196,0.017986217482384312,-0.008260336917835759
-0.0047884033203125,1.0845733520507812,10.58476553955078,-0.046231240491758196,0.007860643196004996,-0.0074609494741742334
0.06943184814453125,1.0223241088867188,10.575188732910156,-0.04876263406335302,0.05182695259738887,-0.0019984686091538122
0.12210428466796874,1.0103531005859374,10.541669909667968,-0.054491577409593955,0.07367687605747056,0.002797856052815337
0.05027823486328125,0.9528922607421875,10.608707556152343,-0.058754977109122086,0.08060490056920376,0.0030643185340358454
0.0047884033203125,1.0606313354492187,10.58476553955078,-0.05688973974057853,0.07847320071943971,0.01052526800821008
-0.040701428222656245,1.0319009155273438,10.520122094726561,-0.05542419609386573,0.06035375199644513,0.01052526800821008
-0.06464344482421874,0.8906430175781249,10.577582934570312,-0.05209341507860938,0.048895865303963275,0.002797856052815337
-0.05027823486328125,1.0654197387695312,10.63025537109375,-0.04383307816077362,0.020517611053979142,-0.005062787143189658
-0.06703764648437499,0.967257470703125,10.59194814453125,-0.041168453348568536,0.0039969372183076245,-0.012390505376753637
0.0,1.0342951171875,10.481814868164061,-0.040502297145517265,0.0074609494741742334,-0.014122511504686942
-0.0718260498046875,0.9313444458007812,10.594342346191405,-0.04290045947650184,-0.005062787143189658,-0.018119448722994567
0.11252747802734374,1.0319009155273438,10.606313354492187,-0.044898928085655654,0.008926493120887028,-0.014655436467127957
0.11252747802734374,1.0223241088867188,10.441113439941406,-0.049961715228845315,0.023848392069235495,-0.012923430339194655
0.06464344482421874,1.0534487304687499,10.644620581054687,-0.049961715228845315,0.03450689131805583,-0.0075941807147844875
0.033518823242187495,0.9648632690429687,10.632649572753905,-0.05595712105630675,0.04809647786030175,-0.01052526800821008
0.05027823486328125,1.01514150390625,10.615890161132812,-0.05382542120654268,0.04743032165725048,-0.00159877488732305
-0.02154781494140625,1.0223241088867188,10.500968481445312,-0.05529096485325548,0.04636447173236845,-0.004529862180748642
0.00718260498046875,1.0199299072265624,10.66856259765625,-0.05395865244715294,0.040901990867348026,0.0013323124061025418
-0.03591302490234375,1.0342951171875,10.579977136230468,-0.05329249624410167,0.03477335379927634,0.001732006127933304
-0.0047884033203125,1.01514150390625,10.560823522949217,-0.046764165454199216,0.0305099540997482,-0.004263399699528133
-0.009576806640625,1.0031704956054688,10.589553942871094,-0.04583154676992743,0.023049004625573973,-0.003464012255866608
-0.0143652099609375,0.9217676391601562,10.663774194335938,-0.0511607963943376,0.02131699849764067,-0.002531393571594829
0.00239420166015625,0.9983820922851562,10.575188732910156,-0.04596477801053769,0.024514548272286763,-0.006928024511733216
0.05985504150390625,1.0582371337890624,10.54645831298828,-0.044898928085655654,0.017986217482384312,-0.006661562030512709
-0.023942016601562498,1.0175357055664063,10.551246716308594,-0.04743032165725048,0.027978560528153375,-0.005062787143189658
-0.009576806640625,1.0199299072265624,10.467449658203124,-0.04836294034152226,0.03490658503988659,-0.005329249624410167
0.047884033203124995,0.9504980590820312,10.606313354492187,-0.05209341507860938,0.027978560528153375,-0.003863705977697371
0.0143652099609375,0.9744400756835937,10.587159741210938,-0.04756355289786074,0.02584686067838931,-0.006661562030512709
-0.0430956298828125,1.0319009155273438,10.62307276611328,-0.0511607963943376,0.03357427263378405,-0.005462480865020421
-0.023942016601562498,0.9217676391601562,10.59194814453125,-0.0528928025222709,0.02398162330984575,-0.0011990811654922875
0.055066638183593745,1.0271125122070313,10.615890161132812,-0.05395865244715294,0.031575804024630234,-0.0006661562030512709
0.06943184814453125,0.9888052856445312,10.611101757812499,-0.05235987755982989,0.03757120985209167,-0.0011990811654922875
-0.05746083984375,0.9720458740234375,10.527304699707031,-0.05529096485325548,0.031975497746460996,-0.002531393571594829
0.02633621826171875,0.9026140258789062,10.603919152832031,-0.04862940282274277,0.03290811643073278,-0.005595712105630674
0.07900865478515624,0.9504980590820312,10.534487304687499,-0.04929555902579404,0.025047473234727783,-0.005196018383799912
0.0143652099609375,1.0630255371093749,10.625466967773438,-0.04729709041664023,0.02904441045303541,-0.0030643185340358454
0.0526724365234375,1.0271125122070313,10.587159741210938,-0.049828483988235056,0.032774885190122525,-0.0030643185340358454
0.076614453125,0.9504980590820312,10.544064111328124,-0.0511607963943376,0.024781010753507273,-0.0029310872934255917
0.033518823242187495,0.9600748657226562,10.572794531249999,-0.049029096544573526,0.03583920372415837,0.0009326186842717792
0.04548983154296875,0.9648632690429687,10.599130749511717,-0.05169372135677862,0.029444104174866172,0.0014655436467127959
0.05027823486328125,0.9720458740234375,10.601524951171875,-0.04862940282274277,0.036238897445989134,0.0005329249624410166
-0.0430956298828125,1.0007762939453124,10.568006127929687,-0.04862940282274277,0.0369050536490404,-0.003863705977697371
0.033518823242187495,0.9935936889648437,10.529698901367187,-0.046231240491758196,0.020517611053979142,-0.0030643185340358454
0.05985504150390625,0.9624690673828125,10.58476553955078,-0.046231240491758196,0.028644716731204646,-0.0003996937218307625
-0.033518823242187495,1.0606313354492187,10.579977136230468,-0.05209341507860938,0.03930321598002497,0.0002664624812205083
-0.00239420166015625,0.9648632690429687,10.534487304687499,-0.05169372135677862,0.028111791768763626,-0.0018652373685435584
-0.031124621582031248,1.0127473022460938,10.615890161132812,-0.036505359927209644,0.026779479362661087,-0.009459418083328047
-0.05985504150390625,1.0342951171875,10.517727893066406,-0.04849617158213252,0.02424808579106626,-0.0063950995492922
0.062249243164062495,0.9888052856445312,10.587159741210938,-0.05342572748471192,0.02971056665608668,-0.00479632466196915
0.016759411621093748,0.9528922607421875,10.565611926269531,-0.04756355289786074,0.0302434916185277,-0.0019984686091538122
0.009576806640625,0.9600748657226562,10.582371337890624,-0.04663093421358895,0.036771822408430146,-0.0002664624812205083
0.011971008300781249,1.0390835205078124,10.496180078124999,-0.049695252747624805,0.04276722823589159,-0.0006661562030512709
0.016759411621093748,0.967257470703125,10.54645831298828,-0.050094946469455566,0.03810413481453269,-0.00159877488732305
0.02633621826171875,0.9361328491210937,10.58476553955078,-0.049828483988235056,0.028111791768763626,-0.0031975497746461
-0.01915361328125,0.9792284790039062,10.575188732910156,-0.05049464019128633,0.02131699849764067,-0.00479632466196915
0.031124621582031248,1.0007762939453124,10.517727893066406,-0.04836294034152226,0.023315467106794475,-0.005462480865020421
-0.03591302490234375,0.9624690673828125,10.577582934570312,-0.04876263406335302,0.032108728987071254,-0.004396630940138387
0.02633621826171875,0.9840168823242187,10.563217724609375,-0.0514272588755581,0.027045941843881597,-0.0033307810152563544
0.016759411621093748,0.9864110839843749,10.62307276611328,-0.05076110267250683,0.032108728987071254,0.0026646248122050836
0.0,1.0390835205078124,10.603919152832031,-0.04703062793541972,0.032108728987071254,-0.0006661562030512709
0.0,0.9624690673828125,10.534487304687499,-0.05249310880044014,0.03583920372415837,-0.0011990811654922875
-0.03591302490234375,0.9097966308593749,10.541669909667968,-0.04636447173236845,0.036105666205378875,0.0035972434964768626
0.06943184814453125,0.9576806640625,10.534487304687499,-0.05062787143189658,0.035705972483548114,0.0
-0.0526724365234375,1.0295067138671874,10.563217724609375,-0.05222664631921963,0.026513016881440577,0.002264931090374321
-0.031124621582031248,0.9337386474609375,10.58476553955078,-0.054491577409593955,0.03317457891195329,0.00013323124061025415
0.00718260498046875,0.9744400756835937,10.539275708007812,-0.04916232778518379,0.026113323159609816,-0.002264931090374321
-0.06943184814453125,0.93852705078125,10.455478649902343,-0.04743032165725048,0.01958499236970736,-0.0030643185340358454
0.023942016601562498,1.0079588989257813,10.599130749511717,-0.048895865303963275,0.022382848422522698,-0.0019984686091538122
0.0047884033203125,0.9504980590820312,10.606313354492187,-0.044632465604435144,0.022382848422522698,-0.00159877488732305
0.05985504150390625,0.9433154541015625,10.505756884765624,-0.050894333913117096,0.03410719759622506,-0.0002664624812205083
0.06703764648437499,1.0031704956054688,10.611101757812499,-0.0514272588755581,0.04862940282274277,-0.003464012255866608
-0.009576806640625,1.0079588989257813,10.582371337890624,-0.05702297098118878,0.05062787143189658,0.000799387443661525
0.03591302490234375,0.9528922607421875,10.532093103027343,-0.05156049011616837,0.03810413481453269,-0.0011990811654922875
0.023942016601562498,0.8978256225585937,10.649408984374999,-0.05209341507860938,0.036105666205378875,-0.0037304747370871167
-0.08140285644531249,0.9959878906249999,10.534487304687499,-0.0479632466196915,0.02131699849764067,-0.002531393571594829
-0.023942016601562498,1.0534487304687499,10.608707556152343,-0.04716385917602997,0.02131699849764067,-0.001732006127933304
-0.0526724365234375,0.9265560424804687,10.51533369140625,-0.04583154676992743,0.009459418083328047,-0.001732006127933304
-0.00239420166015625,0.9361328491210937,10.596736547851561,-0.04436600312321464,0.0039969372183076245,-0.0039969372183076245
0.031124621582031248,1.0366893188476562,10.529698901367187,-0.041035222107958284,0.0074609494741742334,-0.0014655436467127959
0.00239420166015625,0.9983820922851562,10.486603271484375,-0.022649310903743208,-0.0013323124061025418,-0.004130168458917879
0.0909796630859375,1.0582371337890624,10.62307276611328,-0.018252679963604822,0.003464012255866608,-0.0006661562030512709
0.05746083984375,1.0031704956054688,10.529698901367187,-0.04436600312321464,0.03850382853636345,0.0031975497746461
-0.009576806640625,0.97683427734375,10.575188732910156,-0.049029096544573526,0.044898928085655654,0.0037304747370871167
0.08140285644531249,0.967257470703125,10.59194814453125,-0.06115313944010666,0.054225114928373445,0.0073277182335639785
0.0909796630859375,0.948103857421875,10.568006127929687,-0.05342572748471192,0.05262634004105039,0.005595712105630674
0.0143652099609375,1.005564697265625,10.541669909667968,-0.04569831552931718,0.04063552838612752,-0.0003996937218307625
-0.02154781494140625,1.0079588989257813,10.517727893066406,-0.044099540641994124,0.02371516082862524,-0.0003996937218307625
-0.016759411621093748,0.9935936889648437,10.55364091796875,-0.04369984692016337,-0.001732006127933304,-0.0127901990985844
0.01915361328125,1.0797849487304687,10.558429321289061,-0.04663093421358895,0.012923430339194655,-0.007860643196004996
0.031124621582031248,0.9600748657226562,10.560823522949217,-0.05489127113142472,0.015454823910789483,-0.009326186842717792
0.0526724365234375,0.9744400756835937,10.548852514648438,-0.050361408950676076,0.013589586542245924,-0.005329249624410167
0.062249243164062495,1.0606313354492187,10.517727893066406,-0.0479632466196915,0.02584686067838931,-0.009059724361497283
0.10295067138671875,0.9888052856445312,10.481814868164061,-0.05196018383799912,0.02971056665608668,-0.008926493120887028
-0.01915361328125,0.9983820922851562,10.558429321289061,-0.05022817771006582,0.032774885190122525,-0.002398162330984575
0.06943184814453125,1.0031704956054688,10.539275708007812,-0.04756355289786074,0.03797090357392244,-0.0039969372183076245
-0.00718260498046875,1.0199299072265624,10.548852514648438,-0.053692189965932426,0.037837672333312186,-0.0006661562030512709
-0.00239420166015625,1.0007762939453124,10.608707556152343,-0.049562021507014546,0.040768759626737774,0.0011990811654922875
0.031124621582031248,0.9720458740234375,10.55364091796875,-0.04862940282274277,0.03903675349880447,0.0010658499248820332
0.033518823242187495,1.0007762939453124,10.568006127929687,-0.046098009251147945,0.029310872934255914,0.000799387443661525
-0.009576806640625,1.0366893188476562,10.544064111328124,-0.029177641693645662,0.031975497746460996,0.0019984686091538122
0.05746083984375,1.0773907470703123,10.488997473144531,-0.018252679963604822,0.021983154700691936,0.0014655436467127959
0.03591302490234375,1.0103531005859374,10.632649572753905,-0.03490658503988659,0.027845329287543123,0.00013323124061025415
0.1005564697265625,1.0342951171875,10.666168395996094,-0.04543185304809667,0.03037672285913795,-0.005462480865020421
0.028730419921875,0.9935936889648437,10.568006127929687,-0.05529096485325548,0.031042879062189218,-0.003464012255866608
0.076614453125,1.0678139404296874,10.632649572753905,-0.05955436455278361,0.04436600312321464,-0.0030643185340358454
0.04548983154296875,0.9864110839843749,10.539275708007812,-0.05275957128166065,0.03916998473941472,-0.006528330789902454
0.02154781494140625,0.9935936889648437,10.54645831298828,-0.05169372135677862,0.03464012255866608,-0.0026646248122050836
-0.040701428222656245,1.0702081420898437,10.606313354492187,-0.0514272588755581,0.024781010753507273,-0.005196018383799912
0.033518823242187495,1.0223241088867188,10.64222637939453,-0.0528928025222709,0.028245023009373885,-0.004130168458917879
0.05027823486328125,0.9600748657226562,10.560823522949217,-0.04876263406335302,0.020517611053979142,-0.005062787143189658
0.02633621826171875,1.0797849487304687,10.522516296386717,-0.04809647786030175,0.028644716731204646,-0.004130168458917879
-0.011971008300781249,1.0007762939453124,10.496180078124999,-0.0528928025222709,0.03410719759622506,-0.0063950995492922
0.04548983154296875,1.0558429321289062,10.527304699707031,-0.049961715228845315,0.031176110302799476,-0.007993874436615249
0.076614453125,0.9696516723632812,10.59194814453125,-0.05595712105630675,0.032508422708902016,-0.004929555902579405
0.0,1.0079588989257813,10.577582934570312,-0.05555742733447598,0.03450689131805583,-0.004929555902579405
-0.011971008300781249,0.9576806640625,10.565611926269531,-0.059287902071563106,0.040768759626737774,-0.004263399699528133
0.023942016601562498,1.0654197387695312,10.58476553955078,-0.05342572748471192,0.032774885190122525,-0.0029310872934255917
0.01915361328125,1.0414777221679687,10.54645831298828,-0.05649004601874777,0.033041347671343035,-0.0018652373685435584
0.08858546142578125,1.0175357055664063,10.606313354492187,-0.057422664703019544,0.02997702913730719,0.0026646248122050836
0.00718260498046875,1.0223241088867188,10.654197387695312,-0.06461715169597326,0.03410719759622506,0.0
0.011971008300781249,1.0175357055664063,10.615890161132812,-0.05968759579339387,0.036238897445989134,-0.000799387443661525
0.031124621582031248,0.928950244140625,10.556035119628906,-0.058888208349732345,0.031575804024630234,-0.006261868308681946
0.033518823242187495,0.9816226806640624,10.517727893066406,-0.05942113331217336,0.028644716731204646,-0.006128637068071691
-0.00718260498046875,1.0271125122070313,10.589553942871094,-0.057156202221799034,0.0255803981971688,-0.0057289433462409285
0.05746083984375,0.9864110839843749,10.51533369140625,-0.0558238898156965,0.029177641693645662,-0.003464012255866608
0.07900865478515624,0.9504980590820312,10.50815108642578,-0.05062787143189658,0.03477335379927634,-0.006261868308681946
0.011971008300781249,0.9050082275390624,10.512939489746094,-0.05076110267250683,0.019052067407266345,-0.008393568158446012
0.02154781494140625,0.9528922607421875,10.579977136230468,-0.05395865244715294,0.027578866806322613,-0.005595712105630674
0.016759411621093748,0.9720458740234375,10.493785876464843,-0.04263399699528134,0.028378254249984136,-0.005462480865020421
-0.023942016601562498,0.9121908325195311,10.58476553955078,-0.049695252747624805,0.022782542144353463,-0.0010658499248820332
0.05746083984375,0.97683427734375,10.59194814453125,-0.0514272588755581,0.04290045947650184,0.0009326186842717792
0.0143652099609375,0.9959878906249999,10.539275708007812,-0.04849617158213252,0.03903675349880447,0.000799387443661525
0.011971008300781249,1.0295067138671874,10.625466967773438,-0.05022817771006582,0.03490658503988659,-0.003464012255866608
0.06703764648437499,0.9528922607421875,10.596736547851561,-0.049828483988235056,0.026513016881440577,-0.0013323124061025418
0.02154781494140625,1.0007762939453124,10.532093103027343,-0.04743032165725048,0.028111791768763626,-0.0057289433462409285
0.0526724365234375,0.948103857421875,10.618284362792968,-0.05502450237203497,0.018652373685435583,-0.0063950995492922
0.028730419921875,0.93852705078125,10.615890161132812,-0.048895865303963275,0.03384073511500456,-0.0039969372183076245
0.10773907470703124,0.9744400756835937,10.596736547851561,-0.05342572748471192,0.026779479362661087,-0.004396630940138387
0.023942016601562498,0.9457096557617187,10.594342346191405,-0.049029096544573526,0.02851148549059439,-0.0037304747370871167
0.05985504150390625,0.9696516723632812,10.594342346191405,-0.049828483988235056,0.031176110302799476,-0.0026646248122050836
0.03591302490234375,1.0079588989257813,10.649408984374999,-0.05076110267250683,0.032375191468291764,-0.0009326186842717792
0.05027823486328125,0.9169792358398436,10.55364091796875,-0.0464977029729787,0.032108728987071254,-0.0029310872934255917
0.031124621582031248,1.024718310546875,10.579977136230468,-0.05102756515372735,0.031975497746460996,-0.0058621745868511835
-0.0143652099609375,1.0582371337890624,10.51533369140625,-0.05475803989081446,0.03543951000232761,-0.002398162330984575
0.033518823242187495,0.928950244140625,10.635043774414061,-0.05622358353752725,0.035972434964768624,-0.0026646248122050836
0.0526724365234375,0.9959878906249999,10.589553942871094,-0.05342572748471192,0.026379785640830326,-0.006661562030512709
0.04548983154296875,1.0127473022460938,10.570400329589843,-0.04236753451406082,0.01372281778285618,-0.004529862180748642
0.01915361328125,1.0031704956054688,10.599130749511717,-0.04689739669480947,0.031042879062189218,-0.00159877488732305
0.03591302490234375,0.9911994873046874,10.512939489746094,-0.046098009251147945,0.02971056665608668,-0.0002664624812205083
0.033518823242187495,0.9864110839843749,10.618284362792968,-0.04729709041664023,0.028644716731204646,-0.004396630940138387
0.02633621826171875,1.01514150390625,10.594342346191405,-0.046098009251147945,0.030909647821578966,0.0009326186842717792
0.016759411621093748,0.9648632690429687,10.594342346191405,-0.0464977029729787,0.035173047521107094,-0.000799387443661525
0.04548983154296875,0.9074024291992187,10.589553942871094,-0.05169372135677862,0.031842266505850744,-0.0013323124061025418
0.031124621582031248,0.9744400756835937,10.647014782714843,-0.046231240491758196,0.021983154700691936,-0.0030643185340358454
0.0,0.9840168823242187,10.527304699707031,-0.04916232778518379,0.03490658503988659,-0.00479632466196915
-0.016759411621093748,0.9624690673828125,10.50815108642578,-0.05062787143189658,0.023448698347404734,-0.0006661562030512709
0.02633621826171875,0.967257470703125,10.556035119628906,-0.0464977029729787,0.03290811643073278,-0.00159877488732305
0.105344873046875,0.9121908325195311,10.55364091796875,-0.05102756515372735,0.031176110302799476,-0.003863705977697371
0.05027823486328125,0.9935936889648437,10.565611926269531,-0.045565084288706925,0.029444104174866172,0.0026646248122050836
-0.00239420166015625,0.9816226806640624,10.63025537109375,-0.0528928025222709,0.032774885190122525,-0.00013323124061025415
0.047884033203124995,0.9888052856445312,10.558429321289061,-0.05382542120654268,0.03144257278401998,0.002797856052815337
0.011971008300781249,0.9720458740234375,10.654197387695312,-0.05728943346240929,0.018918836166656093,0.0057289433462409285
0.06703764648437499,0.9792284790039062,10.575188732910156,-0.04703062793541972,0.018785604926045835,0.0002664624812205083
0.00239420166015625,0.9792284790039062,10.59194814453125,-0.044898928085655654,0.02531393571594829,-0.00159877488732305
-0.00718260498046875,1.0271125122070313,10.524910498046875,-0.046231240491758196,0.0305099540997482,-0.0006661562030512709
0.033518823242187495,0.948103857421875,10.577582934570312,-0.04236753451406082,0.03370750387439431,-0.003863705977697371
-0.08858546142578125,0.9840168823242187,10.601524951171875,-0.03970290970185574,0.014655436467127957,-0.004130168458917879
0.0718260498046875,0.9792284790039062,10.517727893066406,-0.03930321598002497,0.026113323159609816,-0.003863705977697371
0.076614453125,0.9528922607421875,10.582371337890624,-0.044232771882604376,0.027578866806322613,-0.0002664624812205083
0.00239420166015625,0.9816226806640624,10.544064111328124,-0.04263399699528134,0.03557274124293786,0.002531393571594829
0.10295067138671875,0.9911994873046874,10.577582934570312,-0.050361408950676076,0.03477335379927634,0.0013323124061025418
0.00239420166015625,0.9361328491210937,10.625466967773438,-0.04290045947650184,0.03903675349880447,0.0
0.028730419921875,0.9720458740234375,10.635043774414061,-0.04583154676992743,0.032375191468291764,-0.004130168458917879
0.016759411621093748,0.9959878906249999,10.536881506347656,-0.04543185304809667,0.01971822361031762,-0.002398162330984575
0.08858546142578125,1.0582371337890624,10.599130749511717,-0.04596477801053769,0.02717917308449185,-0.004929555902579405
0.02633621826171875,0.9864110839843749,10.58476553955078,-0.04809647786030175,0.02011791733214838,-0.004130168458917879
0.00239420166015625,0.9911994873046874,10.589553942871094,-0.05395865244715294,0.020517611053979142,-0.00159877488732305
0.055066638183593745,0.9792284790039062,10.647014782714843,-0.05529096485325548,0.022249617181912446,0.0005329249624410166
-0.00718260498046875,1.0271125122070313,10.517727893066406,-0.0511607963943376,0.026646248122050836,-0.0005329249624410166
0.08858546142578125,0.9552864624023437,10.63025537109375,-0.0433001531983326,0.045032159326265905,0.0009326186842717792
0.06464344482421874,0.9648632690429687,10.524910498046875,-0.04729709041664023,0.029444104174866172,-0.003863705977697371
0.00718260498046875,0.9050082275390624,10.532093103027343,-0.048229709100912004,0.040502297145517265,-0.00013323124061025415
0.02154781494140625,0.9792284790039062,10.644620581054687,-0.04543185304809667,0.0302434916185277,-0.0018652373685435584
0.0526724365234375,1.0103531005859374,10.479420666503906,-0.04689739669480947,0.02904441045303541,-0.0009326186842717792
-0.023942016601562498,1.0534487304687499,10.517727893066406,-0.04849617158213252,0.024914241994117528,0.0006661562030512709
0.016759411621093748,0.9504980590820312,10.493785876464843,-0.03863705977697371,0.03943644722063524,-0.0029310872934255917
-0.023942016601562498,1.005564697265625,10.47702646484375,-0.045165390566876164,0.004663093421358896,-0.0063950995492922
0.0526724365234375,0.9959878906249999,10.579977136230468,-0.056090352296917,0.006661562030512709,-0.004263399699528133
0.1005564697265625,0.97683427734375,10.63025537109375,-0.04396630940138387,0.01438897398590745,-0.005462480865020421
0.009576806640625,1.0127473022460938,10.532093103027343,-0.05022817771006582,0.032375191468291764,-0.002398162330984575
0.062249243164062495,0.9576806640625,10.596736547851561,-0.0415681470703993,0.035705972483548114,-0.0005329249624410166
0.12689268798828124,0.9816226806640624,10.637437976074217,-0.04223430327345057,0.03370750387439431,-0.006661562030512709
0.09337386474609374,1.01514150390625,10.503362683105468,-0.04663093421358895,0.03503981628049684,-0.0033307810152563544
0.009576806640625,0.9911994873046874,10.64222637939453,-0.0514272588755581,0.036638591167819895,-0.006661562030512709
0.0526724365234375,0.9935936889648437,10.611101757812499,-0.053159265003491406,0.045032159326265905,-0.004130168458917879
0.0047884033203125,0.9888052856445312,10.55364091796875,-0.049695252747624805,0.026513016881440577,-0.0029310872934255917
0.02154781494140625,0.9840168823242187,10.551246716308594,-0.04809647786030175,0.03424042883683532,-0.0013323124061025418
0.01915361328125,1.0103531005859374,10.603919152832031,-0.049029096544573526,0.028245023009373885,-0.002531393571594829
-0.0383072265625,0.9121908325195311,10.570400329589843,-0.045165390566876164,0.036238897445989134,-0.004929555902579405
0.08140285644531249,1.0079588989257813,10.500968481445312,-0.0433001531983326,0.027312404325102103,-0.0030643185340358454
0.05985504150390625,0.9911994873046874,10.496180078124999,-0.045565084288706925,0.032108728987071254,-0.005462480865020421
0.0,1.0821791503906248,10.558429321289061,-0.050894333913117096,0.037837672333312186,-0.005462480865020421
-0.009576806640625,0.9840168823242187,10.503362683105468,-0.045165390566876164,0.035173047521107094,-0.00159877488732305
0.055066638183593745,1.0271125122070313,10.575188732910156,-0.04862940282274277,0.03170903526524049,-0.0035972434964768626
0.07422025146484375,0.9121908325195311,10.534487304687499,-0.049695252747624805,0.03264165394951227,-0.006528330789902454
-0.0526724365234375,1.0438719238281249,10.565611926269531,-0.04849617158213252,0.02997702913730719,-0.004263399699528133
0.055066638183593745,1.0079588989257813,10.548852514648438,-0.0528928025222709,0.022649310903743208,-0.006261868308681946
0.13407529296874998,0.9145850341796874,10.524910498046875,-0.04836294034152226,0.02105053601642016,-0.005196018383799912
0.08379705810546874,0.9864110839843749,10.505756884765624,-0.05102756515372735,0.016653905076281773,-0.005462480865020421
0.06703764648437499,1.0797849487304687,10.663774194335938,-0.050361408950676076,0.031575804024630234,-0.0037304747370871167
0.0718260498046875,0.9935936889648437,10.589553942871094,-0.04743032165725048,0.0401026034236865,-0.002531393571594829
-0.00718260498046875,0.9600748657226562,10.541669909667968,-0.05022817771006582,0.03770444109270193,0.0013323124061025418
0.05027823486328125,1.0103531005859374,10.649408984374999,-0.04756355289786074,0.03077641658096871,-0.004396630940138387
0.00239420166015625,1.0654197387695312,10.613495959472656,-0.053159265003491406,0.032774885190122525,-0.004929555902579405
-0.00239420166015625,1.0702081420898437,10.551246716308594,-0.0543583461689837,0.03890352225819422,-0.0035972434964768626
0.06943184814453125,0.967257470703125,10.541669909667968,-0.054091883687763194,0.02078407353519965,-0.0005329249624410166
0.16998831787109375,1.024718310546875,10.541669909667968,-0.05169372135677862,0.015588055151399738,-0.006794793271122962
0.02633621826171875,0.9337386474609375,10.575188732910156,-0.0433001531983326,0.025447166956558548,-0.0033307810152563544
0.086191259765625,1.0007762939453124,10.512939489746094,-0.04436600312321464,0.03877029101758396,-0.0029310872934255917
0.047884033203124995,0.9600748657226562,10.59194814453125,-0.0514272588755581,0.026513016881440577,-0.0033307810152563544
0.02154781494140625,1.0127473022460938,10.556035119628906,-0.04876263406335302,0.03983614094246599,-0.0010658499248820332
0.03591302490234375,1.005564697265625,10.563217724609375,-0.0464977029729787,0.035705972483548114,-0.0003996937218307625
0.011971008300781249,0.9792284790039062,10.414777221679687,-0.05249310880044014,0.03703828488965066,-0.002264931090374321
0.009576806640625,0.9864110839843749,10.520122094726561,-0.053692189965932426,0.03823736605514295,-0.0014655436467127959
0.08140285644531249,0.9145850341796874,10.548852514648438,-0.04929555902579404,0.03064318534035846,-0.005329249624410167
0.03591302490234375,1.0007762939453124,10.582371337890624,-0.04396630940138387,0.01945176112909711,-0.008127105677225504
0.0,1.024718310546875,10.503362683105468,-0.04716385917602997,0.03011026037791744,-0.004396630940138387
0.09337386474609374,0.9241618408203125,10.556035119628906,-0.04756355289786074,0.023049004625573973,-0.0035972434964768626
0.05985504150390625,0.9983820922851562,10.548852514648438,-0.04250076575467108,0.02598009191899956,-0.002797856052815337
0.08140285644531249,1.0175357055664063,10.639832177734375,-0.04916232778518379,0.041834609551619814,-0.0009326186842717792
-0.0047884033203125,1.0127473022460938,10.603919152832031,-0.04769678413847099,0.04223430327345057,-0.0019984686091538122
0.05985504150390625,1.0510545288085937,10.615890161132812,-0.04929555902579404,0.036771822408430146,-0.004130168458917879
0.00239420166015625,1.01514150390625,10.606313354492187,-0.049961715228845315,0.023315467106794475,-0.007194486992953725
0.03591302490234375,0.9840168823242187,10.582371337890624,-0.05702297098118878,0.04916232778518379,0.0005329249624410166
-0.05027823486328125,0.8978256225585937,10.505756884765624,-0.0464977029729787,0.020384379813368887,-0.00866003063966652
0.055066638183593745,1.180341418457031,10.596736547851561,-0.054491577409593955,0.018119448722994567,-0.0031975497746461
0.105344873046875,0.8930372192382812,10.46984385986328,-0.05649004601874777,0.044898928085655654,-0.0018652373685435584
-0.01915361328125,1.0654197387695312,10.582371337890624,-0.050894333913117096,0.017719755001163805,-0.005196018383799912
0.09816226806640624,0.9935936889648437,10.524910498046875,-0.05728943346240929,0.03077641658096871,0.000799387443661525
0.0526724365234375,0.9648632690429687,10.539275708007812,-0.049828483988235056,0.012923430339194655,-0.0010658499248820332
0.07422025146484375,0.9528922607421875,10.560823522949217,-0.04783001537908124,0.04170137831100955,-0.0006661562030512709
-0.02633621826171875,1.0007762939453124,10.560823522949217,-0.04636447173236845,0.03823736605514295,-0.001732006127933304
0.09816226806640624,0.9265560424804687,10.582371337890624,-0.045565084288706925,0.013323124061025418,-0.003464012255866608
0.086191259765625,0.9361328491210937,10.594342346191405,-0.05249310880044014,0.035705972483548114,0.00013323124061025415
0.02633621826171875,1.0127473022460938,10.529698901367187,-0.049562021507014546,0.025447166956558548,-0.0037304747370871167
-0.040701428222656245,0.9720458740234375,10.635043774414061,-0.04223430327345057,0.02744563556571236,-0.00013323124061025415
0.02154781494140625,0.9888052856445312,10.618284362792968,-0.0464977029729787,0.018252679963604822,-0.0073277182335639785
-0.033518823242187495,0.9720458740234375,10.560823522949217,-0.046231240491758196,0.02438131703167651,0.0033307810152563544
0.09576806640624999,0.9744400756835937,10.527304699707031,-0.04449923436382489,0.026379785640830326,0.0031975497746461
0.01915361328125,1.0271125122070313,10.603919152832031,-0.05662327725935802,0.041035222107958284,0.0013323124061025418
0.07422025146484375,1.0127473022460938,10.594342346191405,-0.05022817771006582,0.05262634004105039,-0.0031975497746461
0.028730419921875,0.9648632690429687,10.673351000976561,-0.049428790266404295,0.02971056665608668,-0.006261868308681946
0.02633621826171875,0.967257470703125,10.582371337890624,-0.04876263406335302,0.03503981628049684,-0.007727411955394742
0.04548983154296875,1.0342951171875,10.589553942871094,-0.05156049011616837,0.03743797861148142,-0.0011990811654922875
0.04548983154296875,0.9600748657226562,10.582371337890624,-0.050094946469455566,0.036505359927209644,-0.004396630940138387
0.023942016601562498,0.9313444458007812,10.51533369140625,-0.046098009251147945,0.02424808579106626,-0.0026646248122050836
0.00239420166015625,1.1252747802734375,10.568006127929687,-0.044632465604435144,0.02145022973825092,-0.0019984686091538122
0.0718260498046875,0.9696516723632812,10.512939489746094,-0.044632465604435144,0.03557274124293786,0.0006661562030512709
-0.00239420166015625,0.9911994873046874,10.611101757812499,-0.04316692195772235,0.028911179212425153,-0.0006661562030512709
0.07422025146484375,1.0295067138671874,10.51533369140625,-0.049961715228845315,0.040502297145517265,-0.0018652373685435584
0.05027823486328125,0.9792284790039062,10.563217724609375,-0.04689739669480947,0.033307810152563545,-0.004396630940138387
-0.0047884033203125,0.9959878906249999,10.572794531249999,-0.053159265003491406,0.04449923436382489,-0.0031975497746461
-0.0047884033203125,0.9816226806640624,10.663774194335938,-0.04809647786030175,0.027845329287543123,-0.0037304747370871167
0.028730419921875,0.967257470703125,10.579977136230468,-0.04769678413847099,0.03130934154340973,-0.0039969372183076245
0.00718260498046875,0.9624690673828125,10.58476553955078,-0.045165390566876164,0.01851914244482533,-0.0013323124061025418
0.0,0.9983820922851562,10.50815108642578,-0.045032159326265905,0.021849923460081685,0.000799387443661525
0.0,1.0749965454101562,10.551246716308594,-0.045565084288706925,0.01958499236970736,0.001732006127933304
0.02154781494140625,0.97683427734375,10.615890161132812,-0.05049464019128633,0.017986217482384312,-0.0019984686091538122
0.09576806640624999,0.9457096557617187,10.532093103027343,-0.0369050536490404,0.022382848422522698,-0.002398162330984575
0.062249243164062495,1.0582371337890624,10.541669909667968,-0.05049464019128633,0.02424808579106626,-0.0021316998497640663
0.08140285644531249,0.9600748657226562,10.527304699707031,-0.05129402763494785,0.04703062793541972,0.00013323124061025415
0.0047884033203125,0.9935936889648437,10.520122094726561,-0.04703062793541972,0.03290811643073278,-0.008127105677225504
0.08140285644531249,0.8882488159179687,10.541669909667968,-0.04703062793541972,0.028378254249984136,-0.006928024511733216
0.02154781494140625,1.0007762939453124,10.582371337890624,-0.04596477801053769,0.026113323159609816,-0.0074609494741742334
-0.023942016601562498,1.1156979736328125,10.534487304687499,-0.04743032165725048,0.03557274124293786,-0.0011990811654922875
0.01915361328125,0.9121908325195311,10.539275708007812,-0.0464977029729787,0.03144257278401998,-0.002264931090374321
0.10773907470703124,1.0438719238281249,10.558429321289061,-0.04343338443894285,0.02078407353519965,-0.0014655436467127959
0.0383072265625,1.0414777221679687,10.548852514648438,-0.04290045947650184,0.018652373685435583,0.0013323124061025418
0.10295067138671875,1.0342951171875,10.632649572753905,-0.050094946469455566,0.0334410413931738,0.002264931090374321
0.05027823486328125,0.9744400756835937,10.532093103027343,-0.04849617158213252,0.030909647821578966,-0.002531393571594829
0.1484405029296875,0.9720458740234375,10.474632263183594,-0.048229709100912004,0.031975497746460996,-0.0011990811654922875
0.02633621826171875,0.9864110839843749,10.582371337890624,-0.04809647786030175,0.032508422708902016,-0.004396630940138387
0.06703764648437499,0.9792284790039062,10.500968481445312,-0.04862940282274277,0.028378254249984136,-0.0035972434964768626
-0.016759411621093748,0.9648632690429687,10.505756884765624,-0.044765696845045395,0.02717917308449185,-0.0029310872934255917
0.0718260498046875,0.9696516723632812,10.635043774414061,-0.0464977029729787,0.036771822408430146,-0.0039969372183076245
-0.12449848632812499,1.0103531005859374,10.556035119628906,-0.04862940282274277,0.02997702913730719,-0.0039969372183076245
0.3399766357421875,0.7948749511718749,10.579977136230468,-0.04036906590490701,0.013056661579804908,0.0006661562030512709
0.06464344482421874,1.2737152832031249,10.627861169433594,-0.031176110302799476,0.001732006127933304,-0.008127105677225504
-0.00718260498046875,1.13006318359375,10.570400329589843,-0.0668820827863476,0.06634915782390657,0.012390505376753637
-0.0047884033203125,0.9935936889648437,10.544064111328124,-0.04250076575467108,0.028111791768763626,-0.005462480865020421
0.15322890625,0.9840168823242187,10.524910498046875,-0.04343338443894285,0.023848392069235495,0.004663093421358896
0.16519991455078123,1.0199299072265624,10.524910498046875,-0.04449923436382489,0.018385911204215073,-0.003464012255866608
-0.023942016601562498,1.1037269653320312,10.532093103027343,-0.05275957128166065,0.05529096485325548,-0.0006661562030512709
0.03591302490234375,0.9720458740234375,10.565611926269531,-0.049562021507014546,0.0287779479718149,-0.0030643185340358454
0.09576806640624999,1.0486603271484374,10.678139404296875,-0.04223430327345057,0.012257274136143382,-0.0033307810152563544
0.09576806640624999,1.0295067138671874,10.496180078124999,-0.04783001537908124,0.03264165394951227,0.0010658499248820332
0.06464344482421874,1.01514150390625,10.637437976074217,-0.05329249624410167,0.045565084288706925,-0.0010658499248820332
-0.2825157958984375,1.1923124267578125,10.556035119628906,-0.0558238898156965,0.06288514556803997,-0.010791730489430587
0.00239420166015625,0.9313444458007812,10.517727893066406,-0.055690658575086247,0.014122511504686942,0.008793261880276773
0.43574470214843747,0.7278373046875,10.520122094726561,-0.036238897445989134,-0.0073277182335639785,-0.0063950995492922
-0.07900865478515624,1.235408056640625,10.58476553955078,-0.044898928085655654,0.04583154676992743,-0.007061255752343471
-0.16280571289062498,1.0678139404296874,10.563217724609375,-0.06501684541780403,0.06594946410207582,0.006528330789902454
0.15562310791015624,0.8714894042968749,10.565611926269531,-0.04636447173236845,0.007727411955394742,-0.006528330789902454
0.055066638183593745,1.0295067138671874,10.520122094726561,-0.04250076575467108,0.017852986241774057,-0.004396630940138387
0.076614453125,1.024718310546875,10.503362683105468,-0.050894333913117096,0.037304747370871166,-0.0030643185340358454
0.04548983154296875,1.0821791503906248,10.47702646484375,-0.054091883687763194,0.046764165454199216,-0.002398162330984575
0.03591302490234375,0.9026140258789062,10.670956799316405,-0.04849617158213252,0.027845329287543123,-0.0035972434964768626
0.105344873046875,0.9457096557617187,10.603919152832031,-0.04383307816077362,0.014921898948348467,-0.009192955602107537
-0.00239420166015625,1.0342951171875,10.601524951171875,-0.04809647786030175,0.026379785640830326,-0.0003996937218307625
0.05985504150390625,0.9864110839843749,10.582371337890624,-0.0464977029729787,0.03357427263378405,-0.0011990811654922875
0.0526724365234375,1.0989385620117187,10.544064111328124,-0.049428790266404295,0.03943644722063524,-0.0031975497746461
0.08858546142578125,1.0606313354492187,10.488997473144531,-0.04756355289786074,0.03384073511500456,-0.0021316998497640663
0.04548983154296875,0.9337386474609375,10.589553942871094,-0.05209341507860938,0.019984686091538122,-0.006661562030512709
0.0383072265625,1.024718310546875,10.51533369140625,-0.048229709100912004,0.03424042883683532,-0.005462480865020421
-0.0143652099609375,0.9983820922851562,10.62307276611328,-0.05555742733447598,0.032508422708902016,-0.006128637068071691
0.011971008300781249,0.9648632690429687,10.529698901367187,-0.045298621807486415,0.03037672285913795,-0.005595712105630674
0.055066638183593745,0.9361328491210937,10.587159741210938,-0.05076110267250683,0.029444104174866172,-0.004663093421358896
0.028730419921875,1.0223241088867188,10.594342346191405,-0.050361408950676076,0.026513016881440577,-0.0029310872934255917
0.009576806640625,0.9576806640625,10.520122094726561,-0.05076110267250683,0.03943644722063524,-0.002398162330984575
0.0383072265625,0.9864110839843749,10.448296044921875,-0.049029096544573526,0.036238897445989134,-0.0014655436467127959
-0.02633621826171875,0.967257470703125,10.589553942871094,-0.05196018383799912,0.02904441045303541,0.0011990811654922875
0.06703764648437499,0.9648632690429687,10.46984385986328,-0.05209341507860938,0.03583920372415837,-0.002797856052815337
0.047884033203124995,0.9744400756835937,10.575188732910156,-0.04716385917602997,0.027045941843881597,-0.005329249624410167
0.028730419921875,1.0223241088867188,10.570400329589843,-0.04783001537908124,0.03290811643073278,-0.004396630940138387
0.06703764648437499,0.9911994873046874,10.570400329589843,-0.056090352296917,0.031842266505850744,-0.00159877488732305
0.028730419921875,0.9935936889648437,10.544064111328124,-0.044898928085655654,0.029444104174866172,-0.006794793271122962
0.02633621826171875,1.0582371337890624,10.601524951171875,-0.04569831552931718,0.01971822361031762,-0.010924961730040842
0.028730419921875,1.0007762939453124,10.512939489746094,-0.04703062793541972,0.025180704475338038,-0.0037304747370871167
0.062249243164062495,0.9983820922851562,10.620678564453124,-0.04743032165725048,0.026379785640830326,0.0002664624812205083
0.1149216796875,0.9792284790039062,10.491391674804687,-0.044099540641994124,0.026513016881440577,-0.002264931090374321
0.05985504150390625,1.0390835205078124,10.556035119628906,-0.04436600312321464,0.031176110302799476,-0.0003996937218307625
0.07900865478515624,1.01514150390625,10.498574279785156,-0.050094946469455566,0.03970290970185574,-0.00479632466196915
-0.009576806640625,1.0678139404296874,10.625466967773438,-0.04836294034152226,0.027712098046932865,-0.0058621745868511835
0.05985504150390625,1.0103531005859374,10.556035119628906,-0.05062787143189658,0.025447166956558548,-0.0005329249624410166
0.05985504150390625,1.0175357055664063,10.656591589355468,-0.04449923436382489,0.03370750387439431,-0.007061255752343471
-0.0047884033203125,0.9528922607421875,10.560823522949217,-0.049428790266404295,0.036505359927209644,-0.0037304747370871167
0.028730419921875,0.9169792358398436,10.510545288085936,-0.04756355289786074,0.021983154700691936,-0.006528330789902454
0.10773907470703124,0.9624690673828125,10.575188732910156,-0.04809647786030175,0.019984686091538122,-0.004396630940138387
0.055066638183593745,1.0295067138671874,10.620678564453124,-0.04929555902579404,0.040768759626737774,-0.004929555902579405
-0.0047884033203125,1.0869675537109373,10.594342346191405,-0.04916232778518379,0.03810413481453269,-0.0002664624812205083
0.08858546142578125,0.9409212524414062,10.556035119628906,-0.044632465604435144,0.027578866806322613,-0.00159877488732305
0.076614453125,0.928950244140625,10.568006127929687,-0.04769678413847099,0.029177641693645662,0.0010658499248820332
0.0,1.0726023437499999,10.532093103027343,-0.053026033762881154,0.03037672285913795,-0.0063950995492922
-0.03591302490234375,1.0462661254882812,10.558429321289061,-0.05702297098118878,0.0464977029729787,-0.0026646248122050836
0.076614453125,0.8762778076171874,10.568006127929687,-0.04769678413847099,0.027312404325102103,-0.0073277182335639785
0.20829554443359374,0.9433154541015625,10.527304699707031,-0.046764165454199216,0.002797856052815337,-0.007194486992953725
0.01915361328125,1.0462661254882812,10.551246716308594,-0.04436600312321464,0.023448698347404734,-0.00479632466196915
0.0,1.0749965454101562,10.572794531249999,-0.0511607963943376,0.048229709100912004,-0.0037304747370871167
0.07422025146484375,0.8643067993164062,10.496180078124999,-0.04916232778518379,0.020384379813368887,-0.006128637068071691
0.10773907470703124,0.9648632690429687,10.613495959472656,-0.04316692195772235,0.025047473234727783,-0.0019984686091538122
0.1292868896484375,1.0845733520507812,10.582371337890624,-0.04862940282274277,0.044898928085655654,0.0009326186842717792
-0.047884033203124995,0.9840168823242187,10.579977136230468,-0.05062787143189658,0.04729709041664023,-0.0031975497746461
0.02633621826171875,0.9840168823242187,10.618284362792968,-0.049562021507014546,0.03144257278401998,-0.004130168458917879
0.09337386474609374,0.9888052856445312,10.558429321289061,-0.045165390566876164,0.014522205226517705,-0.007061255752343471
0.028730419921875,1.0534487304687499,10.558429321289061,-0.049029096544573526,0.03290811643073278,0.0003996937218307625
0.040701428222656245,0.9624690673828125,10.601524951171875,-0.058888208349732345,0.0401026034236865,-0.0010658499248820332
0.09816226806640624,0.9648632690429687,10.632649572753905,-0.04916232778518379,0.024781010753507273,-0.00479632466196915
0.07900865478515624,1.0462661254882812,10.565611926269531,-0.048229709100912004,0.031176110302799476,-0.0029310872934255917
-0.0143652099609375,1.0702081420898437,10.560823522949217,-0.048895865303963275,0.02997702913730719,-0.002398162330984575
0.06464344482421874,1.0606313354492187,10.572794531249999,-0.049961715228845315,0.037837672333312186,-0.003464012255866608
-0.02154781494140625,0.9457096557617187,10.66137999267578,-0.05022817771006582,0.022382848422522698,-0.0057289433462409285
0.11013327636718749,1.1348515869140625,10.587159741210938,-0.05502450237203497,0.037304747370871166,0.004529862180748642
0.009576806640625,0.7900865478515624,10.63025537109375,-0.053159265003491406,0.05076110267250683,-0.002797856052815337
0.076614453125,1.0989385620117187,10.579977136230468,-0.04636447173236845,0.003464012255866608,-0.0009326186842717792
0.08379705810546874,1.0893617553710937,10.582371337890624,-0.0514272588755581,0.03757120985209167,-0.00013323124061025415
0.016759411621093748,0.8858546142578124,10.539275708007812,-0.05515773361264523,0.04343338443894285,-0.0014655436467127959
0.076614453125,0.9720458740234375,10.651803186035156,-0.036771822408430146,0.00866003063966652,-0.00866003063966652
0.040701428222656245,1.1013327636718748,10.568006127929687,-0.04689739669480947,0.014788667707738212,-0.005995405827461438
0.047884033203124995,0.9504980590820312,10.594342346191405,-0.04929555902579404,0.03557274124293786,-0.002797856052815337
0.055066638183593745,1.0127473022460938,10.500968481445312,-0.040768759626737774,0.029177641693645662,-0.0033307810152563544
0.1005564697265625,1.0199299072265624,10.596736547851561,-0.046098009251147945,0.028245023009373885,-0.00159877488732305
0.040701428222656245,1.0319009155273438,10.529698901367187,-0.048895865303963275,0.04449923436382489,-0.0014655436467127959
0.028730419921875,0.9720458740234375,10.510545288085936,-0.04636447173236845,0.03850382853636345,0.00013323124061025415
0.02154781494140625,1.0917559570312498,10.62307276611328,-0.05182695259738887,0.029444104174866172,-0.0021316998497640663
0.040701428222656245,1.0127473022460938,10.582371337890624,-0.05235987755982989,0.031842266505850744,-0.008127105677225504
0.07422025146484375,1.0319009155273438,10.575188732910156,-0.054225114928373445,0.03797090357392244,-0.0018652373685435584
-0.0143652099609375,0.9864110839843749,10.570400329589843,-0.04756355289786074,0.023448698347404734,-0.007727411955394742
0.009576806640625,1.1085153686523437,10.68053360595703,-0.04449923436382489,0.026113323159609816,-0.003863705977697371
0.01915361328125,1.0438719238281249,10.572794531249999,-0.04876263406335302,0.030909647821578966,-0.003863705977697371
0.055066638183593745,0.9792284790039062,10.510545288085936,-0.0433001531983326,0.02531393571594829,0.001732006127933304
0.06464344482421874,1.0989385620117187,10.544064111328124,-0.05102756515372735,0.031842266505850744,0.0035972434964768626
0.02154781494140625,0.9528922607421875,10.627861169433594,-0.049695252747624805,0.044232771882604376,0.0
0.0526724365234375,0.9361328491210937,10.615890161132812,-0.0479632466196915,0.028245023009373885,0.0005329249624410166
0.0383072265625,1.0486603271484374,10.558429321289061,-0.0464977029729787,0.021583460978861175,-0.0029310872934255917
0.086191259765625,1.0079588989257813,10.544064111328124,-0.05049464019128633,0.03357427263378405,-0.0014655436467127959
0.009576806640625,0.9911994873046874,10.63025537109375,-0.04729709041664023,0.02904441045303541,0.0009326186842717792
0.03591302490234375,1.0103531005859374,10.587159741210938,-0.05022817771006582,0.029444104174866172,0.0013323124061025418
0.05027823486328125,0.9840168823242187,10.536881506347656,-0.04316692195772235,0.023049004625573973,-0.0033307810152563544
0.0,0.9696516723632812,10.532093103027343,-0.040502297145517265,0.026779479362661087,-0.002531393571594829
0.028730419921875,1.005564697265625,10.536881506347656,-0.04223430327345057,0.023182235866184224,-0.0039969372183076245
0.08379705810546874,0.9648632690429687,10.455478649902343,-0.04849617158213252,0.03317457891195329,0.00013323124061025415
0.05985504150390625,0.9983820922851562,10.54645831298828,-0.04383307816077362,0.017186830038722786,-0.004929555902579405
0.06943184814453125,1.0223241088867188,10.560823522949217,-0.046098009251147945,0.036238897445989134,0.0026646248122050836
0.062249243164062495,0.9959878906249999,10.568006127929687,-0.05169372135677862,0.03810413481453269,-0.0010658499248820332
0.040701428222656245,0.9983820922851562,10.512939489746094,-0.044765696845045395,0.02744563556571236,-0.0002664624812205083
0.10295067138671875,1.0414777221679687,10.517727893066406,-0.048895865303963275,0.026779479362661087,-0.002531393571594829
0.031124621582031248,1.0103531005859374,10.500968481445312,-0.048229709100912004,0.03357427263378405,-0.0030643185340358454
0.031124621582031248,0.9696516723632812,10.534487304687499,-0.045565084288706925,0.03317457891195329,-0.002531393571594829
0.047884033203124995,0.9600748657226562,10.520122094726561,-0.045298621807486415,0.017852986241774057,-0.004130168458917879
0.03591302490234375,0.9792284790039062,10.63025537109375,-0.0479632466196915,0.03450689131805583,-0.0010658499248820332
0.00239420166015625,0.9816226806640624,10.568006127929687,-0.04836294034152226,0.022116385941302188,-0.0013323124061025418
0.09576806640624999,1.0486603271484374,10.536881506347656,-0.05342572748471192,0.03357427263378405,0.004130168458917879
0.02633621826171875,1.0007762939453124,10.579977136230468,-0.0514272588755581,0.041035222107958284,0.0011990811654922875
0.06464344482421874,1.0175357055664063,10.596736547851561,-0.05102756515372735,0.03863705977697371,-0.000799387443661525
0.0718260498046875,1.0223241088867188,10.539275708007812,-0.049828483988235056,0.02904441045303541,0.0002664624812205083
0.016759411621093748,1.0175357055664063,10.599130749511717,-0.05235987755982989,0.03450689131805583,-0.000799387443661525
0.08858546142578125,1.0079588989257813,10.611101757812499,-0.05049464019128633,0.03450689131805583,-0.00479632466196915
0.031124621582031248,0.9983820922851562,10.520122094726561,-0.0528928025222709,0.03797090357392244,-0.0074609494741742334
-0.016759411621093748,0.9911994873046874,10.589553942871094,-0.04369984692016337,0.025447166956558548,-0.002531393571594829
-0.00239420166015625,0.9888052856445312,10.589553942871094,-0.04569831552931718,0.02078407353519965,0.0002664624812205083
0.05027823486328125,0.9935936889648437,10.670956799316405,-0.044765696845045395,0.03503981628049684,-0.002264931090374321
0.04548983154296875,0.9935936889648437,10.611101757812499,-0.05156049011616837,0.025447166956558548,-0.0010658499248820332
0.05027823486328125,0.9792284790039062,10.627861169433594,-0.053558958725322174,0.03903675349880447,-0.00159877488732305
0.05027823486328125,1.0103531005859374,10.608707556152343,-0.0543583461689837,0.03970290970185574,0.0003996937218307625
-0.023942016601562498,0.9959878906249999,10.618284362792968,-0.049428790266404295,0.0305099540997482,-0.0073277182335639785
0.03591302490234375,1.024718310546875,10.548852514648438,-0.05049464019128633,0.025180704475338038,-0.005595712105630674
0.076614453125,1.0271125122070313,10.481814868164061,-0.05675650849996827,0.03064318534035846,-0.004130168458917879
-0.011971008300781249,0.9457096557617187,10.524910498046875,-0.049428790266404295,0.032241960227681506,-0.006794793271122962
0.0,1.0630255371093749,10.517727893066406,-0.04876263406335302,0.027312404325102103,-0.004663093421358896
0.08379705810546874,1.0175357055664063,10.649408984374999,-0.05235987755982989,0.03823736605514295,0.0006661562030512709
0.062249243164062495,0.9792284790039062,10.596736547851561,-0.0479632466196915,0.03477335379927634,-0.0031975497746461
0.07422025146484375,1.0319009155273438,10.572794531249999,-0.045165390566876164,0.02971056665608668,-0.0018652373685435584
0.09576806640624999,0.948103857421875,10.611101757812499,-0.05502450237203497,0.03530627876171736,0.0011990811654922875
0.07900865478515624,1.0103531005859374,10.563217724609375,-0.048895865303963275,0.04729709041664023,-0.0006661562030512709
-0.062249243164062495,0.8738836059570312,10.522516296386717,-0.05076110267250683,0.027978560528153375,-0.004529862180748642
0.09337386474609374,1.0127473022460938,10.570400329589843,-0.05156049011616837,0.028911179212425153,-0.006528330789902454
0.0526724365234375,0.9888052856445312,10.565611926269531,-0.049695252747624805,0.03543951000232761,-0.0029310872934255917
0.08858546142578125,1.0223241088867188,10.50815108642578,-0.0528928025222709,0.03797090357392244,-0.0019984686091538122
0.031124621582031248,0.9840168823242187,10.606313354492187,-0.0430336907171121,0.02571362943777905,-0.0063950995492922
0.04548983154296875,1.0366893188476562,10.568006127929687,-0.04929555902579404,0.02464777951289702,-0.004396630940138387
0.05027823486328125,0.9911994873046874,10.558429321289061,-0.046098009251147945,0.024514548272286763,-0.003464012255866608
0.00718260498046875,0.9433154541015625,10.601524951171875,-0.04449923436382489,0.02438131703167651,-0.003464012255866608
0.11013327636718749,1.0319009155273438,10.51533369140625,-0.04756355289786074,0.02744563556571236,-0.0057289433462409285
0.0047884033203125,1.024718310546875,10.544064111328124,-0.05249310880044014,0.03943644722063524,-0.0029310872934255917
0.07900865478515624,0.8978256225585937,10.544064111328124,-0.04663093421358895,0.03370750387439431,-0.002264931090374321
0.02633621826171875,1.0534487304687499,10.601524951171875,-0.048229709100912004,0.035705972483548114,-0.005062787143189658
0.028730419921875,1.0007762939453124,10.556035119628906,-0.05515773361264523,0.026513016881440577,-0.009326186842717792
0.06943184814453125,0.9433154541015625,10.54645831298828,-0.048895865303963275,0.032508422708902016,-0.0058621745868511835
0.07422025146484375,0.9433154541015625,10.594342346191405,-0.04849617158213252,0.03170903526524049,-0.0057289433462409285
0.009576806640625,0.9361328491210937,10.488997473144531,-0.04716385917602997,0.031575804024630234,-0.0014655436467127959
0.04548983154296875,1.0678139404296874,10.541669909667968,-0.048229709100912004,0.029310872934255914,-0.002531393571594829
0.055066638183593745,0.9648632690429687,10.524910498046875,-0.049961715228845315,0.036771822408430146,0.0005329249624410166
-0.02154781494140625,0.9744400756835937,10.529698901367187,-0.05102756515372735,0.03530627876171736,-0.004929555902579405
0.00718260498046875,1.005564697265625,10.560823522949217,-0.05102756515372735,0.03863705977697371,0.0002664624812205083
0.09337386474609374,0.9720458740234375,10.548852514648438,-0.049029096544573526,0.04036906590490701,-0.0030643185340358454
0.047884033203124995,1.0127473022460938,10.613495959472656,-0.04596477801053769,0.029310872934255914,-0.004130168458917879
0.08858546142578125,1.01514150390625,10.548852514648438,-0.048895865303963275,0.026779479362661087,-0.0037304747370871167
0.086191259765625,0.9959878906249999,10.51533369140625,-0.05022817771006582,0.036771822408430146,-0.0021316998497640663
0.02633621826171875,1.0103531005859374,10.496180078124999,-0.05156049011616837,0.02717917308449185,-0.003464012255866608
0.011971008300781249,0.9935936889648437,10.582371337890624,-0.0464977029729787,0.014522205226517705,-0.008926493120887028
0.02633621826171875,0.9983820922851562,10.608707556152343,-0.045298621807486415,0.02531393571594829,-0.0014655436467127959
0.06464344482421874,0.9983820922851562,10.539275708007812,-0.0479632466196915,0.022516079663132953,-0.0005329249624410166
-0.031124621582031248,1.024718310546875,10.512939489746094,-0.049428790266404295,0.03703828488965066,0.0002664624812205083
0.040701428222656245,0.97683427734375,10.541669909667968,-0.04583154676992743,0.035972434964768624,-0.0009326186842717792
0.09337386474609374,1.0031704956054688,10.697293017578124,-0.04716385917602997,0.03384073511500456,-0.005062787143189658
0.03591302490234375,1.0678139404296874,10.551246716308594,-0.05169372135677862,0.03810413481453269,-0.0063950995492922
-0.01915361328125,0.9504980590820312,10.579977136230468,-0.05515773361264523,0.029843797896696934,-0.0035972434964768626
0.0383072265625,0.9528922607421875,10.589553942871094,-0.048229709100912004,0.03264165394951227,-0.004130168458917879
0.05746083984375,1.0773907470703123,10.505756884765624,-0.0528928025222709,0.033041347671343035,-0.0005329249624410166
0.07422025146484375,0.9888052856445312,10.58476553955078,-0.05102756515372735,0.026113323159609816,-0.002264931090374321
0.05985504150390625,1.0271125122070313,10.510545288085936,-0.044632465604435144,0.031575804024630234,-0.0021316998497640663
-0.011971008300781249,1.0223241088867188,10.575188732910156,-0.046098009251147945,0.027578866806322613,-0.0035972434964768626
0.06703764648437499,0.9169792358398436,10.572794531249999,-0.045565084288706925,0.03850382853636345,0.00013323124061025415
0.02633621826171875,1.0319009155273438,10.551246716308594,-0.049828483988235056,0.026379785640830326,0.0018652373685435584
0.0383072265625,1.0582371337890624,10.606313354492187,-0.05049464019128633,0.044765696845045395,-0.0057289433462409285
-0.00718260498046875,0.9720458740234375,10.54645831298828,-0.05382542120654268,0.03970290970185574,-0.0019984686091538122
-0.028730419921875,0.9217676391601562,10.594342346191405,-0.04263399699528134,0.022382848422522698,-0.008393568158446012
-0.055066638183593745,1.1540052001953125,10.625466967773438,-0.0558238898156965,0.03757120985209167,-0.001732006127933304
0.09576806640624999,0.7302315063476562,10.524910498046875,-0.05529096485325548,0.03703828488965066,0.0003996937218307625
0.12449848632812499,1.01514150390625,10.54645831298828,-0.03863705977697371,-0.009059724361497283,-0.01185758041431262
0.055066638183593745,1.1372457885742187,10.498574279785156,-0.04369984692016337,0.025180704475338038,-0.0037304747370871167
0.031124621582031248,0.8930372192382812,10.539275708007812,-0.04769678413847099,0.04663093421358895,0.003464012255866608
0.09337386474609374,0.9600748657226562,10.560823522949217,-0.041967840792230066,0.008926493120887028,-0.00013323124061025415
0.11013327636718749,1.0797849487304687,10.663774194335938,-0.04716385917602997,0.03703828488965066,0.0018652373685435584
0.03591302490234375,0.9864110839843749,10.505756884765624,-0.0479632466196915,0.0401026034236865,-0.001732006127933304
0.11252747802734374,1.005564697265625,10.548852514648438,-0.05342572748471192,0.0063950995492922,0.007061255752343471
0.10773907470703124,1.0319009155273438,10.615890161132812,-0.04236753451406082,0.031975497746460996,0.001732006127933304
0.06703764648437499,0.9241618408203125,10.503362683105468,-0.04783001537908124,0.01732006127933304,-0.007194486992953725
-0.02154781494140625,1.0989385620117187,10.582371337890624,-0.048895865303963275,0.0401026034236865,-0.006794793271122962
0.05027823486328125,1.0319009155273438,10.637437976074217,-0.04543185304809667,0.02078407353519965,-0.0037304747370871167
0.1197100830078125,0.9576806640625,10.512939489746094,-0.041301684589178794,0.01185758041431262,-0.002398162330984575
0.08140285644531249,1.0103531005859374,10.59194814453125,-0.04250076575467108,0.031842266505850744,-0.0026646248122050836
-0.13407529296874998,1.1276689819335937,10.55364091796875,-0.049695252747624805,0.0415681470703993,-0.0033307810152563544
-0.0383072265625,1.0821791503906248,10.608707556152343,-0.049961715228845315,0.03970290970185574,-0.000799387443661525
0.354341845703125,0.7876923461914062,10.58476553955078,-0.044232771882604376,-0.004130168458917879,0.0018652373685435584
0.0909796630859375,1.0749965454101562,10.608707556152343,-0.049029096544573526,0.019984686091538122,-0.002398162330984575
-0.18435352783203124,1.1180921752929687,10.613495959472656,-0.06115313944010666,0.07767381327577817,0.006928024511733216
0.00239420166015625,0.9528922607421875,10.611101757812499,-0.045032159326265905,0.01572128639200999,-0.0039969372183076245
0.20829554443359374,0.9026140258789062,10.498574279785156,-0.04663093421358895,0.01732006127933304,0.0002664624812205083
0.07900865478515624,1.0007762939453124,10.496180078124999,-0.03903675349880447,0.019318529888486854,-0.004663093421358896
-0.0430956298828125,1.0175357055664063,10.572794531249999,-0.053159265003491406,0.05102756515372735,-0.0009326186842717792
-0.18914193115234373,1.01514150390625,10.50815108642578,-0.04729709041664023,0.0511607963943376,-0.0039969372183076245
0.047884033203124995,0.9888052856445312,10.527304699707031,-0.03757120985209167,-0.005062787143189658,-0.0021316998497640663
0.2753331909179687,0.8786720092773437,10.577582934570312,-0.036238897445989134,0.0063950995492922,0.0
0.028730419921875,1.1444283935546875,10.577582934570312,-0.04223430327345057,0.036372128686599385,-0.005995405827461438
0.05746083984375,0.9792284790039062,10.556035119628906,-0.05728943346240929,0.04929555902579404,0.00866003063966652
0.0909796630859375,0.9026140258789062,10.556035119628906,-0.04596477801053769,0.017719755001163805,-0.004663093421358896
0.09337386474609374,0.9959878906249999,10.54645831298828,-0.050894333913117096,0.03530627876171736,-0.0029310872934255917
0.0909796630859375,1.0534487304687499,10.556035119628906,-0.049695252747624805,0.017586523760553547,-0.0013323124061025418
-0.0430956298828125,1.1252747802734375,10.505756884765624,-0.0511607963943376,0.05329249624410167,-0.007194486992953725
-0.06464344482421874,1.005564697265625,10.541669909667968,-0.05595712105630675,0.05382542120654268,0.00159877488732305
0.09816226806640624,0.8499415893554687,10.582371337890624,-0.035705972483548114,-0.005196018383799912,-0.01345635530163567
0.1580173095703125,1.1444283935546875,10.62307276611328,-0.04769678413847099,0.03130934154340973,-0.0010658499248820332
0.02633621826171875,0.967257470703125,10.474632263183594,-0.0558238898156965,0.04250076575467108,-0.0002664624812205083
-0.03591302490234375,1.0702081420898437,10.534487304687499,-0.05502450237203497,0.049029096544573526,-0.0014655436467127959
0.016759411621093748,0.9648632690429687,10.522516296386717,-0.05156049011616837,0.016787136316892024,-0.0030643185340358454
0.14604630126953125,0.9337386474609375,10.462661254882812,-0.04663093421358895,0.015987748873230498,-0.005196018383799912
0.01915361328125,1.0678139404296874,10.541669909667968,-0.05329249624410167,0.04596477801053769,-0.005196018383799912
0.00239420166015625,1.1468225952148436,10.520122094726561,-0.057156202221799034,0.023049004625573973,0.0029310872934255917
0.20350714111328125,0.7829039428710937,10.625466967773438,-0.045298621807486415,0.04036906590490701,-0.006928024511733216
-0.09576806640624999,1.2330138549804688,10.601524951171875,-0.04929555902579404,0.004263399699528133,-0.0021316998497640663
0.07900865478515624,0.9265560424804687,10.524910498046875,-0.045165390566876164,0.05395865244715294,-0.008793261880276773
-0.0383072265625,1.1563994018554686,10.484209069824217,-0.045298621807486415,0.03557274124293786,-0.0058621745868511835
0.040701428222656245,1.0271125122070313,10.544064111328124,-0.0430336907171121,0.0063950995492922,-0.0033307810152563544
0.41898529052734373,0.7948749511718749,10.486603271484375,-0.04689739669480947,0.036638591167819895,-0.0030643185340358454
-0.1867477294921875,1.1372457885742187,10.644620581054687,-0.04716385917602997,0.04876263406335302,-0.010791730489430587
-0.047884033203124995,1.01514150390625,10.618284362792968,-0.06315160804926047,0.06275191432742971,0.006661562030512709
0.016759411621093748,0.8810662109374999,10.579977136230468,-0.050094946469455566,0.020917304775809907,-0.01345635530163567
0.00718260498046875,1.0917559570312498,10.635043774414061,-0.0433001531983326,-0.0010658499248820332,-0.008926493120887028
0.354341845703125,0.8595183959960937,10.532093103027343,-0.04250076575467108,0.02118376725703041,-0.005462480865020421
0.04548983154296875,1.1516109985351561,10.627861169433594,-0.0479632466196915,0.01945176112909711,-0.011324655451871604
-0.16519991455078123,1.0749965454101562,10.572794531249999,-0.06115313944010666,0.08593415019361393,-0.0019984686091538122
-0.033518823242187495,0.8882488159179687,10.656591589355468,-0.05049464019128633,0.019052067407266345,0.00479632466196915
0.30406361083984373,0.948103857421875,10.611101757812499,-0.03583920372415837,-0.007194486992953725,-0.011058192970651094
0.17477672119140625,1.0821791503906248,10.524910498046875,-0.049029096544573526,0.03450689131805583,-0.0019984686091538122
-0.028730419921875,1.1731588134765625,10.63025537109375,-0.05529096485325548,0.044232771882604376,-0.008260336917835759
-0.00718260498046875,0.9959878906249999,10.51533369140625,-0.0604869832370554,0.05822205214668107,0.0006661562030512709
-0.0143652099609375,0.93852705078125,10.62307276611328,-0.04729709041664023,0.02105053601642016,-0.005196018383799912
0.08379705810546874,0.852335791015625,10.50815108642578,-0.04769678413847099,0.04036906590490701,0.0006661562030512709
-0.0143652099609375,1.0869675537109373,10.47702646484375,-0.03850382853636345,0.014655436467127957,0.0002664624812205083
0.17238251953125,0.8834604125976562,10.548852514648438,-0.04210107203284032,0.012257274136143382,-0.006128637068071691
-0.13407529296874998,1.1947066284179686,10.587159741210938,-0.05395865244715294,0.036105666205378875,0.0037304747370871167
0.3016694091796875,0.6751648681640625,10.436325036621094,-0.04396630940138387,0.021849923460081685,0.00159877488732305
-0.04548983154296875,1.1947066284179686,10.488997473144531,-0.037171516130260915,0.023182235866184224,-0.012523736617363892
-0.07900865478515624,0.8906430175781249,10.670956799316405,-0.06861408891428089,0.10565237380393155,0.024114854550456002
-0.3112462158203125,1.2425906616210938,10.448296044921875,-0.015188361429568975,-0.041834609551619814,-0.04636447173236845
0.622492431640625,0.9720458740234375,10.570400329589843,-0.0863338439154447,0.06368453301170149,0.0464977029729787
0.14125789794921875,0.49799394531249996,10.462661254882812,-0.005196018383799912,-0.035173047521107094,-0.05169372135677862
-0.5698199951171875,2.1164742675781247,10.702081420898438,-0.08353598786262936,0.10805053613491612,0.01345635530163567
0.3687070556640625,0.16041151123046873,10.484209069824217,-0.0433001531983326,0.015454823910789483,-0.02145022973825092
0.19871873779296872,1.1324573852539062,10.568006127929687,-0.03543951000232761,-0.014255742745297196,-0.015188361429568975
-0.17477672119140625,1.2904746948242187,10.606313354492187,-0.0528928025222709,0.03583920372415837,0.0039969372183076245
0.2059013427734375,0.9361328491210937,10.58476553955078,-0.05728943346240929,0.06515007665841428,-0.002398162330984575
-0.11252747802734374,1.0510545288085937,10.548852514648438,-0.05076110267250683,0.028245023009373885,-0.005595712105630674
0.16041151123046873,0.7445967163085937,10.548852514648438,-0.0464977029729787,0.041168453348568536,0.009326186842717792
0.0909796630859375,0.9959878906249999,10.560823522949217,-0.035705972483548114,-0.0014655436467127959,-0.013856049023466432
-0.07900865478515624,1.197100830078125,10.644620581054687,-0.057422664703019544,0.06275191432742971,0.004663093421358896
0.16280571289062498,0.8475473876953125,10.558429321289061,-0.0543583461689837,0.036238897445989134,0.0018652373685435584
0.07900865478515624,0.9409212524414062,10.59194814453125,-0.044765696845045395,0.01372281778285618,-0.011990811654922875
-0.00718260498046875,1.0726023437499999,10.577582934570312,-0.049562021507014546,0.02717917308449185,-0.0005329249624410166
0.10773907470703124,0.9840168823242187,10.589553942871094,-0.04756355289786074,0.011591117933092112,-0.008393568158446012
-0.040701428222656245,1.1061211669921875,10.55364091796875,-0.04876263406335302,0.03916998473941472,-0.00013323124061025415
0.1005564697265625,1.0127473022460938,10.603919152832031,-0.04929555902579404,0.011591117933092112,-0.005062787143189658
0.1484405029296875,1.0175357055664063,10.687716210937499,-0.04276722823589159,0.026646248122050836,-0.006794793271122962
-0.047884033203124995,1.1659762084960936,10.639832177734375,-0.058355283387291325,0.05049464019128633,0.0031975497746461
0.19153613281249998,0.8092401611328125,10.512939489746094,-0.04703062793541972,0.04876263406335302,-0.002264931090374321
-0.040701428222656245,1.0390835205078124,10.520122094726561,-0.04769678413847099,0.02464777951289702,-0.0075941807147844875
-0.033518823242187495,1.0558429321289062,10.637437976074217,-0.04929555902579404,0.022516079663132953,-0.006661562030512709
0.16280571289062498,1.0486603271484374,10.587159741210938,-0.0511607963943376,0.02571362943777905,-0.006261868308681946
0.10773907470703124,0.9528922607421875,10.536881506347656,-0.044765696845045395,0.02464777951289702,-0.0057289433462409285
-0.02633621826171875,1.0534487304687499,10.579977136230468,-0.044632465604435144,0.029310872934255914,-0.004396630940138387
-0.02633621826171875,1.0630255371093749,10.575188732910156,-0.04716385917602997,0.022782542144353463,-0.0033307810152563544
0.05027823486328125,0.9528922607421875,10.692504614257812,-0.04236753451406082,0.031842266505850744,0.0014655436467127959
0.06943184814453125,0.9959878906249999,10.541669909667968,-0.04263399699528134,0.010791730489430587,-0.0057289433462409285
0.06943184814453125,1.0319009155273438,10.651803186035156,-0.04316692195772235,0.02584686067838931,-0.004529862180748642
0.08140285644531249,1.0486603271484374,10.55364091796875,-0.045565084288706925,0.037304747370871166,0.0002664624812205083
0.06943184814453125,0.9265560424804687,10.520122094726561,-0.03970290970185574,0.023315467106794475,-0.003464012255866608
0.1149216796875,1.1180921752929687,10.493785876464843,-0.054491577409593955,0.04636447173236845,0.0058621745868511835
0.07422025146484375,0.9648632690429687,10.568006127929687,-0.048895865303963275,0.058888208349732345,-0.0003996937218307625
0.040701428222656245,1.1228805786132812,10.606313354492187,-0.050894333913117096,0.06115313944010666,0.002797856052815337
0.06464344482421874,0.97683427734375,10.558429321289061,-0.053159265003491406,0.041035222107958284,-0.0018652373685435584
0.0143652099609375,0.9888052856445312,10.541669909667968,-0.04916232778518379,0.0305099540997482,-0.0018652373685435584
0.05027823486328125,0.9959878906249999,10.603919152832031,-0.0401026034236865,0.013989280264076687,-0.007860643196004996
-0.028730419921875,1.01514150390625,10.55364091796875,-0.04369984692016337,0.01851914244482533,-0.0031975497746461
0.076614453125,0.9816226806640624,10.522516296386717,-0.037837672333312186,0.004529862180748642,-0.0075941807147844875
0.12210428466796874,1.0678139404296874,10.548852514648438,-0.036638591167819895,0.012923430339194655,-0.007727411955394742
0.05027823486328125,1.0390835205078124,10.637437976074217,-0.04596477801053769,0.023049004625573973,-0.004529862180748642
0.0909796630859375,1.1180921752929687,10.55364091796875,-0.041434915829789046,0.0383705972957532,0.0002664624812205083
0.04548983154296875,1.0582371337890624,10.565611926269531,-0.04689739669480947,0.03850382853636345,-0.0006661562030512709
0.09816226806640624,0.948103857421875,10.55364091796875,-0.04703062793541972,0.03890352225819422,-0.00013323124061025415
0.0526724365234375,1.1037269653320312,10.54645831298828,-0.049695252747624805,0.0415681470703993,-0.0006661562030512709
0.08379705810546874,1.0414777221679687,10.572794531249999,-0.048895865303963275,0.050094946469455566,0.00013323124061025415
0.0143652099609375,1.0103531005859374,10.565611926269531,-0.05062787143189658,0.04369984692016337,0.0006661562030512709
0.12210428466796874,1.0342951171875,10.620678564453124,-0.05329249624410167,0.02997702913730719,0.0039969372183076245
0.07422025146484375,1.0534487304687499,10.517727893066406,-0.05235987755982989,0.028644716731204646,-0.0011990811654922875
0.01915361328125,1.0486603271484374,10.635043774414061,-0.05595712105630675,0.03384073511500456,-0.0011990811654922875
0.00239420166015625,1.0678139404296874,10.544064111328124,-0.0543583461689837,0.03823736605514295,-0.0074609494741742334
0.08379705810546874,1.0462661254882812,10.63025537109375,-0.05182695259738887,0.019052067407266345,-0.00479632466196915
0.05027823486328125,1.0510545288085937,10.544064111328124,-0.049562021507014546,0.025180704475338038,-0.0029310872934255917
0.047884033203124995,0.9361328491210937,10.512939489746094,-0.050361408950676076,0.02851148549059439,-0.002264931090374321
0.0526724365234375,0.9959878906249999,10.551246716308594,-0.044765696845045395,0.03956967846124549,-0.002797856052815337
0.062249243164062495,0.9504980590820312,10.582371337890624,-0.046098009251147945,0.027712098046932865,-0.002264931090374321
0.0909796630859375,1.0678139404296874,10.417171423339843,-0.04663093421358895,0.03477335379927634,-0.0003996937218307625
-0.00239420166015625,1.024718310546875,10.611101757812499,-0.048229709100912004,0.0401026034236865,-0.003863705977697371
0.0430956298828125,1.0079588989257813,10.577582934570312,-0.045565084288706925,0.023848392069235495,-0.0005329249624410166
0.0526724365234375,1.0558429321289062,10.484209069824217,-0.04916232778518379,0.03583920372415837,-0.00013323124061025415
0.05985504150390625,1.0007762939453124,10.627861169433594,-0.05209341507860938,0.03490658503988659,-0.005062787143189658
0.00239420166015625,1.0319009155273438,10.635043774414061,-0.0479632466196915,0.026779479362661087,-0.011058192970651094
0.0718260498046875,1.0390835205078124,10.582371337890624,-0.05182695259738887,0.0334410413931738,-0.004263399699528133
0.02154781494140625,0.9744400756835937,10.620678564453124,-0.05049464019128633,0.02691271060327134,-0.00479632466196915
0.076614453125,0.9504980590820312,10.46984385986328,-0.048229709100912004,0.033041347671343035,-0.0057289433462409285
0.0047884033203125,1.0271125122070313,10.565611926269531,-0.0528928025222709,0.03290811643073278,-0.0039969372183076245
0.11731588134765625,1.01514150390625,10.529698901367187,-0.0464977029729787,0.03930321598002497,-0.0030643185340358454
0.07900865478515624,0.9935936889648437,10.587159741210938,-0.0464977029729787,0.033307810152563545,-0.0037304747370871167
0.08379705810546874,1.0103531005859374,10.63025537109375,-0.04862940282274277,0.03011026037791744,-0.0026646248122050836
0.0383072265625,1.0486603271484374,10.58476553955078,-0.04716385917602997,0.03530627876171736,-0.005462480865020421
0.01915361328125,1.0773907470703123,10.59194814453125,-0.0514272588755581,0.03037672285913795,-0.000799387443661525
-0.00718260498046875,1.0223241088867188,10.536881506347656,-0.04743032165725048,0.03144257278401998,-0.002264931090374321
0.009576806640625,0.9864110839843749,10.55364091796875,-0.045032159326265905,0.027845329287543123,-0.002531393571594829
0.009576806640625,1.0582371337890624,10.503362683105468,-0.04862940282274277,0.0305099540997482,-0.0037304747370871167
0.06943184814453125,0.9911994873046874,10.548852514648438,-0.05169372135677862,0.032774885190122525,-0.002797856052815337
0.033518823242187495,1.0007762939453124,10.627861169433594,-0.04689739669480947,0.02717917308449185,-0.004929555902579405
-0.0383072265625,1.0630255371093749,10.529698901367187,-0.04356661567955311,0.012656967857974145,-0.007727411955394742
0.0526724365234375,1.0654197387695312,10.620678564453124,-0.04689739669480947,0.02904441045303541,-0.002797856052815337
0.062249243164062495,1.0893617553710937,10.639832177734375,-0.049428790266404295,0.027978560528153375,-0.006128637068071691
0.06943184814453125,1.005564697265625,10.565611926269531,-0.04396630940138387,0.0383705972957532,-0.005196018383799912
0.0718260498046875,1.0941501586914062,10.603919152832031,-0.04836294034152226,0.03530627876171736,-0.0026646248122050836
0.055066638183593745,1.0007762939453124,10.539275708007812,-0.05169372135677862,0.031042879062189218,-0.0002664624812205083
-0.0143652099609375,1.0366893188476562,10.594342346191405,-0.04836294034152226,0.032375191468291764,-0.010392036767599824
0.06464344482421874,1.01514150390625,10.453084448242187,-0.04929555902579404,0.03011026037791744,-0.006794793271122962
0.011971008300781249,0.9576806640625,10.548852514648438,-0.048895865303963275,0.030909647821578966,-0.0035972434964768626
0.06703764648437499,1.0510545288085937,10.500968481445312,-0.053026033762881154,0.03290811643073278,-0.005196018383799912
0.00239420166015625,1.0175357055664063,10.556035119628906,-0.04783001537908124,0.023848392069235495,-0.002264931090374321
0.076614453125,1.0103531005859374,10.75714805908203,-0.04769678413847099,0.023049004625573973,-0.003863705977697371
0.06703764648437499,1.0271125122070313,10.539275708007812,-0.04769678413847099,0.02744563556571236,-0.0002664624812205083
0.011971008300781249,1.0199299072265624,10.618284362792968,-0.049695252747624805,0.03370750387439431,0.0014655436467127959
0.05985504150390625,1.01514150390625,10.658985791015624,-0.05156049011616837,0.04583154676992743,-0.0002664624812205083
0.031124621582031248,1.0295067138671874,10.50815108642578,-0.050094946469455566,0.03916998473941472,0.0011990811654922875
-0.0143652099609375,1.0366893188476562,10.596736547851561,-0.04862940282274277,0.03490658503988659,-0.0002664624812205083
0.05985504150390625,1.0390835205078124,10.505756884765624,-0.049029096544573526,0.03424042883683532,0.0003996937218307625
0.055066638183593745,1.0079588989257813,10.613495959472656,-0.05102756515372735,0.0334410413931738,-0.004263399699528133
0.06703764648437499,1.0390835205078124,10.613495959472656,-0.04543185304809667,0.023581929588014985,-0.004130168458917879
0.05985504150390625,1.0510545288085937,10.675745202636719,-0.04170137831100955,0.01572128639200999,-0.005595712105630674
0.08858546142578125,1.0678139404296874,10.558429321289061,-0.04449923436382489,0.015588055151399738,-0.0035972434964768626
0.0047884033203125,0.9744400756835937,10.632649572753905,-0.045565084288706925,0.02531393571594829,-0.00013323124061025415
0.0430956298828125,1.0127473022460938,10.541669909667968,-0.049029096544573526,0.027578866806322613,-0.0006661562030512709
0.08858546142578125,1.0103531005859374,10.517727893066406,-0.048229709100912004,0.04756355289786074,-0.0005329249624410166
0.033518823242187495,1.0175357055664063,10.532093103027343,-0.04876263406335302,0.04356661567955311,0.002264931090374321
0.13407529296874998,1.0103531005859374,10.541669909667968,-0.04876263406335302,0.032375191468291764,-0.002398162330984575
0.05027823486328125,1.0175357055664063,10.496180078124999,-0.04703062793541972,0.028911179212425153,-0.0031975497746461
-0.01915361328125,1.0749965454101562,10.510545288085936,-0.05076110267250683,0.0302434916185277,-0.007727411955394742
0.031124621582031248,0.9911994873046874,10.532093103027343,-0.048229709100912004,0.022116385941302188,-0.0033307810152563544
0.0430956298828125,1.0295067138671874,10.524910498046875,-0.0415681470703993,0.02078407353519965,-0.000799387443661525
-0.0430956298828125,1.0127473022460938,10.558429321289061,-0.05022817771006582,0.02691271060327134,-0.0031975497746461
0.05746083984375,1.0295067138671874,10.582371337890624,-0.04849617158213252,0.026646248122050836,-0.0006661562030512709
0.13646949462890623,1.0558429321289062,10.579977136230468,-0.04543185304809667,0.03863705977697371,-0.0010658499248820332
0.028730419921875,0.9744400756835937,10.608707556152343,-0.04663093421358895,0.035705972483548114,-0.000799387443661525
0.04548983154296875,1.024718310546875,10.572794531249999,-0.04743032165725048,0.0415681470703993,0.0014655436467127959
0.086191259765625,1.0007762939453124,10.613495959472656,-0.04316692195772235,0.03450689131805583,-0.0011990811654922875
0.05985504150390625,1.0654197387695312,10.565611926269531,-0.04543185304809667,0.027978560528153375,-0.0058621745868511835
0.02633621826171875,0.9840168823242187,10.548852514648438,-0.04583154676992743,0.026113323159609816,-0.0035972434964768626
0.02154781494140625,1.1061211669921875,10.520122094726561,-0.049828483988235056,0.03077641658096871,-0.0039969372183076245
0.1005564697265625,0.9840168823242187,10.560823522949217,-0.044632465604435144,0.024914241994117528,-0.006794793271122962
0.033518823242187495,1.0797849487304687,10.534487304687499,-0.041434915829789046,0.015188361429568975,-0.0058621745868511835
0.086191259765625,1.0702081420898437,10.599130749511717,-0.044765696845045395,0.02691271060327134,-0.0019984686091538122
0.11252747802734374,1.0702081420898437,10.539275708007812,-0.04263399699528134,0.0287779479718149,-0.00159877488732305
0.06703764648437499,1.0797849487304687,10.524910498046875,-0.044898928085655654,0.032508422708902016,-0.0014655436467127959
0.009576806640625,1.0271125122070313,10.556035119628906,-0.044099540641994124,0.03757120985209167,0.0009326186842717792
0.016759411621093748,1.0199299072265624,10.512939489746094,-0.04689739669480947,0.03530627876171736,-0.0019984686091538122
-0.02154781494140625,0.9911994873046874,10.613495959472656,-0.05156049011616837,0.02997702913730719,-0.0033307810152563544
0.0047884033203125,1.0342951171875,10.544064111328124,-0.04636447173236845,0.02584686067838931,-0.008260336917835759
0.00239420166015625,1.0103531005859374,10.539275708007812,-0.045565084288706925,0.024514548272286763,-0.002398162330984575
0.08379705810546874,1.0821791503906248,10.522516296386717,-0.046231240491758196,0.031042879062189218,-0.0037304747370871167
0.02154781494140625,0.9600748657226562,10.524910498046875,-0.045298621807486415,0.027045941843881597,-0.004130168458917879
0.06703764648437499,1.0462661254882812,10.524910498046875,-0.0430336907171121,0.027845329287543123,-0.0033307810152563544
0.05746083984375,1.0510545288085937,10.601524951171875,-0.040768759626737774,0.03144257278401998,-0.0010658499248820332
0.05985504150390625,1.0127473022460938,10.517727893066406,-0.046764165454199216,0.03357427263378405,-0.00013323124061025415
0.0718260498046875,1.0223241088867188,10.611101757812499,-0.046764165454199216,0.0305099540997482,-0.0013323124061025418
0.04548983154296875,1.0869675537109373,10.582371337890624,-0.04663093421358895,0.03357427263378405,-0.002797856052815337
0.05746083984375,1.0510545288085937,10.568006127929687,-0.04743032165725048,0.03543951000232761,-0.0018652373685435584
0.00718260498046875,1.0079588989257813,10.568006127929687,-0.048895865303963275,0.023581929588014985,-0.0019984686091538122
0.028730419921875,1.0199299072265624,10.62307276611328,-0.03850382853636345,0.03543951000232761,-0.0019984686091538122
0.016759411621093748,1.1348515869140625,10.556035119628906,-0.050094946469455566,0.033041347671343035,-0.0019984686091538122
0.033518823242187495,1.0199299072265624,10.656591589355468,-0.04703062793541972,0.028911179212425153,-0.0037304747370871167
0.016759411621093748,1.0869675537109373,10.532093103027343,-0.04436600312321464,0.017186830038722786,-0.004663093421358896
0.00718260498046875,1.0821791503906248,10.599130749511717,-0.04170137831100955,0.020650842294589397,-0.0009326186842717792
0.016759411621093748,1.0199299072265624,10.678139404296875,-0.040502297145517265,0.021983154700691936,-0.002398162330984575
0.031124621582031248,1.1109095703125,10.560823522949217,-0.04290045947650184,0.03011026037791744,-0.0037304747370871167
0.040701428222656245,1.0295067138671874,10.572794531249999,-0.04636447173236845,0.03011026037791744,0.0005329249624410166
0.0909796630859375,1.0007762939453124,10.551246716308594,-0.044898928085655654,0.035705972483548114,0.0
0.10295067138671875,1.0319009155273438,10.565611926269531,-0.04356661567955311,0.02691271060327134,-0.004929555902579405
0.08379705810546874,1.0630255371093749,10.599130749511717,-0.045032159326265905,0.036505359927209644,-0.002531393571594829
-0.0047884033203125,1.1013327636718748,10.532093103027343,-0.04769678413847099,0.03956967846124549,-0.004130168458917879
0.031124621582031248,1.1061211669921875,10.558429321289061,-0.049562021507014546,0.027845329287543123,-0.002398162330984575
0.011971008300781249,1.0726023437499999,10.577582934570312,-0.05182695259738887,0.03823736605514295,-0.00866003063966652
0.10295067138671875,1.0462661254882812,10.606313354492187,-0.05235987755982989,0.028111791768763626,-0.0095926493239383
0.03591302490234375,1.0486603271484374,10.594342346191405,-0.05342572748471192,0.024914241994117528,-0.006661562030512709
0.07900865478515624,1.0414777221679687,10.565611926269531,-0.049695252747624805,0.026113323159609816,-0.007860643196004996
0.02633621826171875,1.0319009155273438,10.488997473144531,-0.045298621807486415,0.029843797896696934,-0.005462480865020421
0.055066638183593745,1.0390835205078124,10.587159741210938,-0.045165390566876164,0.03397396635561481,0.00013323124061025415
0.07422025146484375,1.0797849487304687,10.58476553955078,-0.04716385917602997,0.03357427263378405,-0.004929555902579405
0.09337386474609374,1.0295067138671874,10.505756884765624,-0.045565084288706925,0.03410719759622506,-0.004663093421358896
0.1388636962890625,1.0175357055664063,10.548852514648438,-0.05728943346240929,0.0369050536490404,-0.0030643185340358454
0.062249243164062495,1.1037269653320312,10.618284362792968,-0.05489127113142472,0.04250076575467108,-0.004663093421358896
0.01915361328125,1.0558429321289062,10.635043774414061,-0.05529096485325548,0.03916998473941472,0.0010658499248820332
0.011971008300781249,1.0582371337890624,10.608707556152343,-0.05235987755982989,0.02744563556571236,-0.002398162330984575
0.028730419921875,1.0749965454101562,10.654197387695312,-0.05182695259738887,0.020650842294589397,-0.0011990811654922875
0.03591302490234375,1.0223241088867188,10.55364091796875,-0.04396630940138387,0.016254211354451008,0.0005329249624410166
0.05985504150390625,1.024718310546875,10.565611926269531,-0.0464977029729787,0.022249617181912446,0.0002664624812205083
0.023942016601562498,1.1013327636718748,10.512939489746094,-0.048895865303963275,0.032375191468291764,0.00013323124061025415
0.076614453125,1.0893617553710937,10.568006127929687,-0.054491577409593955,0.03890352225819422,-0.0021316998497640663
0.086191259765625,1.0749965454101562,10.589553942871094,-0.0543583461689837,0.03503981628049684,-0.005995405827461438
0.06703764648437499,1.0606313354492187,10.644620581054687,-0.055690658575086247,0.033307810152563545,-0.005462480865020421
0.07422025146484375,1.0678139404296874,10.563217724609375,-0.057822358424850305,0.03503981628049684,-0.002531393571594829
0.047884033203124995,0.9792284790039062,10.539275708007812,-0.06328483928987072,0.03903675349880447,0.0019984686091538122
0.05985504150390625,1.024718310546875,10.575188732910156,-0.050361408950676076,0.039969372183076245,0.0014655436467127959
-0.0047884033203125,1.0893617553710937,10.618284362792968,-0.055690658575086247,0.03583920372415837,0.006128637068071691
0.06703764648437499,1.0462661254882812,10.500968481445312,-0.0415681470703993,0.03144257278401998,0.004663093421358896
0.06464344482421874,1.0462661254882812,10.484209069824217,-0.041834609551619814,0.03317457891195329,0.0037304747370871167
0.1005564697265625,1.1109095703125,10.54645831298828,-0.04756355289786074,0.025447166956558548,0.0
0.05027823486328125,1.0534487304687499,10.568006127929687,-0.05076110267250683,0.03064318534035846,0.002264931090374321
0.06943184814453125,1.0773907470703123,10.577582934570312,-0.05382542120654268,0.031042879062189218,0.0018652373685435584
0.076614453125,0.9935936889648437,10.594342346191405,-0.0479632466196915,0.03370750387439431,-0.002797856052815337
0.00239420166015625,1.0007762939453124,10.563217724609375,-0.04716385917602997,0.012656967857974145,-0.0033307810152563544
0.04548983154296875,1.0366893188476562,10.522516296386717,-0.04756355289786074,0.02118376725703041,0.0
0.07422025146484375,0.9983820922851562,10.568006127929687,-0.032774885190122525,0.0002664624812205083,-0.006261868308681946
0.0430956298828125,1.0606313354492187,10.522516296386717,-0.031842266505850744,0.004929555902579405,-0.003464012255866608
0.09337386474609374,1.0175357055664063,10.55364091796875,-0.029177641693645662,0.027845329287543123,0.00479632466196915
0.08858546142578125,1.0319009155273438,10.615890161132812,-0.03170903526524049,0.035972434964768624,0.003863705977697371
0.0909796630859375,1.0869675537109373,10.563217724609375,-0.03397396635561481,0.050361408950676076,0.012923430339194655
-0.028730419921875,0.9864110839843749,10.635043774414061,-0.04276722823589159,0.049562021507014546,0.011058192970651094
0.0383072265625,1.005564697265625,10.556035119628906,-0.046231240491758196,0.04436600312321464,-0.0019984686091538122
0.011971008300781249,1.0007762939453124,10.589553942871094,-0.03583920372415837,0.026646248122050836,-0.0075941807147844875
0.076614453125,1.0845733520507812,10.536881506347656,-0.026513016881440577,0.02371516082862524,-0.016120980113840753
0.03591302490234375,1.0606313354492187,10.551246716308594,-0.04023583466429676,0.016520673835671518,-0.013189892820415163
0.11731588134765625,1.0845733520507812,10.498574279785156,-0.04583154676992743,0.022782542144353463,-0.008260336917835759
0.08858546142578125,1.1109095703125,10.603919152832031,-0.04716385917602997,0.04449923436382489,-0.0029310872934255917
0.06703764648437499,1.0366893188476562,10.544064111328124,-0.050894333913117096,0.037837672333312186,0.0009326186842717792
0.0,1.0390835205078124,10.589553942871094,-0.04689739669480947,0.03464012255866608,-0.0014655436467127959
0.1292868896484375,1.0678139404296874,10.522516296386717,-0.050894333913117096,0.027045941843881597,-0.0029310872934255917
0.09337386474609374,1.0223241088867188,10.488997473144531,-0.044099540641994124,0.027312404325102103,-0.006794793271122962
0.040701428222656245,1.0534487304687499,10.520122094726561,-0.04929555902579404,0.03077641658096871,-0.0063950995492922
0.08379705810546874,1.0462661254882812,10.524910498046875,-0.044765696845045395,0.037304747370871166,-0.004263399699528133
0.00718260498046875,1.120486376953125,10.606313354492187,-0.045032159326265905,0.03983614094246599,-0.007727411955394742
0.0526724365234375,1.149216796875,10.524910498046875,-0.04276722823589159,0.036105666205378875,-0.008127105677225504
0.055066638183593745,1.120486376953125,10.54645831298828,-0.045565084288706925,0.03703828488965066,-0.008393568158446012
-0.009576806640625,1.0558429321289062,10.505756884765624,-0.044898928085655654,0.02118376725703041,-0.008393568158446012
0.0430956298828125,1.0965443603515623,10.536881506347656,-0.04583154676992743,0.013856049023466432,-0.010658499248820334
-0.0047884033203125,1.1061211669921875,10.570400329589843,-0.04876263406335302,0.01692036755750228,-0.004663093421358896
0.0526724365234375,1.1348515869140625,10.589553942871094,-0.05395865244715294,0.028111791768763626,-0.007727411955394742
0.00718260498046875,1.0582371337890624,10.55364091796875,-0.049428790266404295,0.026113323159609816,-0.004663093421358896
0.031124621582031248,1.0893617553710937,10.603919152832031,-0.0514272588755581,0.03410719759622506,0.00013323124061025415
0.12449848632812499,1.0438719238281249,10.376469995117187,-0.05275957128166065,0.03424042883683532,-0.0026646248122050836
0.028730419921875,1.1372457885742187,10.556035119628906,-0.04703062793541972,0.02997702913730719,-0.005062787143189658
0.05746083984375,1.0582371337890624,10.575188732910156,-0.044765696845045395,0.032375191468291764,-0.0011990811654922875
0.09576806640624999,1.1180921752929687,10.510545288085936,-0.04689739669480947,0.029843797896696934,-0.006661562030512709
0.033518823242187495,1.0654197387695312,10.563217724609375,-0.045298621807486415,0.0191852986478766,-0.006261868308681946
0.055066638183593745,1.1061211669921875,10.505756884765624,-0.04290045947650184,0.025180704475338038,-0.004396630940138387
0.1484405029296875,1.1109095703125,10.455478649902343,-0.046231240491758196,0.03424042883683532,-0.004929555902579405
0.10295067138671875,1.0438719238281249,10.527304699707031,-0.04583154676992743,0.0383705972957532,-0.003863705977697371
0.06943184814453125,1.0366893188476562,10.589553942871094,-0.049961715228845315,0.0514272588755581,-0.0003996937218307625
0.040701428222656245,1.0654197387695312,10.503362683105468,-0.05076110267250683,0.04729709041664023,-0.0013323124061025418
0.0430956298828125,1.0462661254882812,10.512939489746094,-0.0558238898156965,0.04316692195772235,-0.0021316998497640663
0.016759411621093748,0.9911994873046874,10.500968481445312,-0.05235987755982989,0.03264165394951227,-0.006661562030512709
-0.0047884033203125,1.0893617553710937,10.558429321289061,-0.05129402763494785,0.03543951000232761,-0.0005329249624410166
0.062249243164062495,1.0654197387695312,10.522516296386717,-0.05222664631921963,0.021583460978861175,-0.0019984686091538122
0.04548983154296875,1.0726023437499999,10.481814868164061,-0.048895865303963275,0.017586523760553547,-0.004263399699528133
0.05985504150390625,1.0726023437499999,10.568006127929687,-0.05156049011616837,0.017986217482384312,-0.0037304747370871167
0.05746083984375,1.0821791503906248,10.517727893066406,-0.04876263406335302,0.023049004625573973,-0.0033307810152563544
0.05985504150390625,1.0678139404296874,10.608707556152343,-0.053026033762881154,0.03384073511500456,-0.0013323124061025418
0.12210428466796874,1.1348515869140625,10.534487304687499,-0.05249310880044014,0.041301684589178794,-0.0002664624812205083
0.09816226806640624,1.0342951171875,10.568006127929687,-0.053692189965932426,0.03983614094246599,0.0002664624812205083
-0.06703764648437499,1.1037269653320312,10.558429321289061,-0.04769678413847099,0.032774885190122525,-0.0013323124061025418
-0.011971008300781249,1.01514150390625,10.58476553955078,-0.05196018383799912,0.021849923460081685,-0.0029310872934255917
0.011971008300781249,1.0342951171875,10.536881506347656,-0.04743032165725048,0.017852986241774057,-0.0014655436467127959
0.08379705810546874,1.0654197387695312,10.579977136230468,-0.04929555902579404,0.01505513018895872,-0.002398162330984575
0.0909796630859375,1.0941501586914062,10.613495959472656,-0.04583154676992743,0.030909647821578966,-0.004263399699528133
0.009576806640625,1.1061211669921875,10.488997473144531,-0.04783001537908124,0.03077641658096871,-0.0019984686091538122
0.04548983154296875,1.0558429321289062,10.608707556152343,-0.05129402763494785,0.032508422708902016,-0.002398162330984575
0.1292868896484375,1.1133037719726562,10.63025537109375,-0.04929555902579404,0.03890352225819422,0.0031975497746461
0.0383072265625,1.0534487304687499,10.589553942871094,-0.05555742733447598,0.03264165394951227,-0.0014655436467127959
0.09576806640624999,1.0845733520507812,10.558429321289061,-0.05502450237203497,0.03424042883683532,-0.0002664624812205083
0.05027823486328125,1.0390835205078124,10.62307276611328,-0.05502450237203497,0.031575804024630234,-0.0002664624812205083
0.009576806640625,1.0749965454101562,10.534487304687499,-0.05515773361264523,0.02624655440022007,-0.0019984686091538122
0.02154781494140625,1.1276689819335937,10.529698901367187,-0.054091883687763194,0.02011791733214838,-0.0009326186842717792
0.11013327636718749,1.0462661254882812,10.575188732910156,-0.04783001537908124,0.027312404325102103,-0.0029310872934255917
0.031124621582031248,1.0558429321289062,10.570400329589843,-0.04290045947650184,0.0302434916185277,-0.0029310872934255917
0.0383072265625,1.1013327636718748,10.62307276611328,-0.0479632466196915,0.023581929588014985,-0.0010658499248820332
-0.011971008300781249,1.0390835205078124,10.512939489746094,-0.04729709041664023,0.021583460978861175,-0.0010658499248820332
0.07900865478515624,1.0797849487304687,10.46984385986328,-0.05102756515372735,0.022516079663132953,-0.001732006127933304
0.0383072265625,1.0606313354492187,10.486603271484375,-0.04596477801053769,0.02464777951289702,-0.0002664624812205083
0.03591302490234375,1.0749965454101562,10.63025537109375,-0.05062787143189658,0.03850382853636345,-0.0014655436467127959
0.17477672119140625,1.1324573852539062,10.493785876464843,-0.053558958725322174,0.033307810152563545,0.0037304747370871167
0.12689268798828124,1.0989385620117187,10.563217724609375,-0.05235987755982989,0.036638591167819895,0.0009326186842717792
0.01915361328125,1.0319009155273438,10.572794531249999,-0.04569831552931718,0.04343338443894285,-0.0002664624812205083
0.00718260498046875,1.024718310546875,10.512939489746094,-0.04716385917602997,0.022382848422522698,-0.006928024511733216
0.04548983154296875,1.1156979736328125,10.548852514648438,-0.048229709100912004,0.027312404325102103,-0.003863705977697371
0.11013327636718749,1.0845733520507812,10.558429321289061,-0.046764165454199216,0.026779479362661087,-0.0026646248122050836
0.031124621582031248,1.0534487304687499,10.532093103027343,-0.04783001537908124,0.022516079663132953,-0.007860643196004996
0.07422025146484375,1.0797849487304687,10.527304699707031,-0.04396630940138387,0.028644716731204646,-0.0033307810152563544
0.07900865478515624,1.0749965454101562,10.512939489746094,-0.04783001537908124,0.031842266505850744,0.0005329249624410166
0.06464344482421874,1.0749965454101562,10.608707556152343,-0.04596477801053769,0.031575804024630234,-0.0030643185340358454
0.1580173095703125,1.0749965454101562,10.520122094726561,-0.04716385917602997,0.036105666205378875,0.0021316998497640663
0.031124621582031248,1.0319009155273438,10.50815108642578,-0.049562021507014546,0.03703828488965066,0.000799387443661525
0.023942016601562498,1.0702081420898437,10.632649572753905,-0.0479632466196915,0.036638591167819895,-0.0013323124061025418
0.08379705810546874,1.024718310546875,10.529698901367187,-0.045565084288706925,0.03144257278401998,-0.002264931090374321
0.047884033203124995,1.0486603271484374,10.572794531249999,-0.048895865303963275,0.03410719759622506,0.0002664624812205083
0.11731588134765625,1.0558429321289062,10.541669909667968,-0.04849617158213252,0.029577335415476424,-0.0058621745868511835
0.09337386474609374,1.0678139404296874,10.488997473144531,-0.044099540641994124,0.018785604926045835,-0.0035972434964768626
0.047884033203124995,1.0510545288085937,10.551246716308594,-0.0430336907171121,0.008526799399056265,-0.004130168458917879
0.08858546142578125,1.0749965454101562,10.539275708007812,-0.04263399699528134,0.02424808579106626,-0.004396630940138387
0.07900865478515624,1.0965443603515623,10.608707556152343,-0.04636447173236845,0.02118376725703041,-0.0013323124061025418
0.1388636962890625,1.0295067138671874,10.587159741210938,-0.05049464019128633,0.03503981628049684,-0.00159877488732305
0.086191259765625,1.0726023437499999,10.532093103027343,-0.05049464019128633,0.033041347671343035,-0.003863705977697371
0.016759411621093748,1.1156979736328125,10.522516296386717,-0.053026033762881154,0.036105666205378875,-0.0014655436467127959
0.076614453125,1.0223241088867188,10.548852514648438,-0.04916232778518379,0.031575804024630234,-0.005329249624410167
0.09337386474609374,1.0989385620117187,10.544064111328124,-0.04862940282274277,0.029177641693645662,-0.004663093421358896
0.05027823486328125,1.0630255371093749,10.637437976074217,-0.04743032165725048,0.03170903526524049,-0.0005329249624410166
0.009576806640625,1.0749965454101562,10.560823522949217,-0.04596477801053769,0.03357427263378405,-0.00159877488732305
0.05746083984375,1.0678139404296874,10.503362683105468,-0.05169372135677862,0.0302434916185277,0.0003996937218307625
0.06703764648437499,1.0486603271484374,10.694898815917968,-0.05169372135677862,0.029444104174866172,-0.002531393571594829
0.11731588134765625,1.1348515869140625,10.50815108642578,-0.04876263406335302,0.0383705972957532,-0.002531393571594829
0.10295067138671875,1.1228805786132812,10.572794531249999,-0.05275957128166065,0.03464012255866608,-0.0033307810152563544
0.040701428222656245,1.0510545288085937,10.658985791015624,-0.05502450237203497,0.041434915829789046,-0.0010658499248820332
0.023942016601562498,1.0749965454101562,10.517727893066406,-0.05196018383799912,0.031176110302799476,-0.0073277182335639785
-0.016759411621093748,1.1252747802734375,10.582371337890624,-0.0514272588755581,0.031176110302799476,-0.003464012255866608
0.10295067138671875,1.1420341918945311,10.479420666503906,-0.05102756515372735,0.037171516130260915,-0.0018652373685435584
0.02633621826171875,1.0342951171875,10.565611926269531,-0.04876263406335302,0.028911179212425153,-0.0035972434964768626
0.031124621582031248,1.0749965454101562,10.596736547851561,-0.045165390566876164,0.024914241994117528,0.0019984686091538122
-0.009576806640625,1.0342951171875,10.532093103027343,-0.04023583466429676,0.012523736617363892,-0.005062787143189658
0.13168109130859373,1.0630255371093749,10.570400329589843,-0.04343338443894285,0.02371516082862524,-0.0058621745868511835
0.047884033203124995,1.0821791503906248,10.568006127929687,-0.045298621807486415,0.03370750387439431,-0.0021316998497640663
0.06464344482421874,1.1109095703125,10.615890161132812,-0.04596477801053769,0.027045941843881597,-0.0026646248122050836
0.03591302490234375,1.0893617553710937,10.54645831298828,-0.041301684589178794,0.0383705972957532,-0.0019984686091538122
0.05985504150390625,1.1276689819335937,10.536881506347656,-0.04716385917602997,0.04223430327345057,-0.0013323124061025418
0.09816226806640624,1.0534487304687499,10.568006127929687,-0.049828483988235056,0.03424042883683532,-0.0039969372183076245
0.15083470458984374,1.0917559570312498,10.568006127929687,-0.04596477801053769,0.03943644722063524,-0.004396630940138387
0.03591302490234375,1.0534487304687499,10.570400329589843,-0.04876263406335302,0.031176110302799476,-0.00013323124061025415
0.09576806640624999,1.0630255371093749,10.596736547851561,-0.0543583461689837,0.03557274124293786,-0.003464012255866608
0.05746083984375,1.0965443603515623,10.548852514648438,-0.04849617158213252,0.035705972483548114,-0.008127105677225504
0.07900865478515624,1.1133037719726562,10.55364091796875,-0.04783001537908124,0.027045941843881597,-0.008260336917835759
0.086191259765625,1.0582371337890624,10.544064111328124,-0.04663093421358895,0.028644716731204646,-0.0029310872934255917
0.01915361328125,1.139639990234375,10.484209069824217,-0.04716385917602997,0.02398162330984575,-0.007194486992953725
0.040701428222656245,1.1061211669921875,10.524910498046875,-0.03943644722063524,0.023848392069235495,-0.002531393571594829
0.047884033203124995,1.0917559570312498,10.551246716308594,-0.039969372183076245,0.022782542144353463,-0.000799387443661525
0.09576806640624999,1.0965443603515623,10.556035119628906,-0.04210107203284032,0.03877029101758396,0.002531393571594829
0.05746083984375,0.9816226806640624,10.589553942871094,-0.049029096544573526,0.03916998473941472,0.004396630940138387
0.040701428222656245,1.0726023437499999,10.59194814453125,-0.041834609551619814,0.027845329287543123,-0.004396630940138387
0.08140285644531249,1.0917559570312498,10.59194814453125,-0.03797090357392244,0.02531393571594829,-0.002797856052815337
0.02633621826171875,1.0606313354492187,10.503362683105468,-0.0430336907171121,0.039969372183076245,-0.0029310872934255917
0.07900865478515624,1.1061211669921875,10.594342346191405,-0.0401026034236865,0.032508422708902016,-0.004929555902579405
0.04548983154296875,1.149216796875,10.505756884765624,-0.041967840792230066,0.027045941843881597,-0.007061255752343471
0.09576806640624999,1.1707646118164061,10.55364091796875,-0.05262634004105039,0.03397396635561481,-0.006528330789902454
0.05985504150390625,1.0079588989257813,10.544064111328124,-0.050094946469455566,0.0191852986478766,-0.007061255752343471
0.028730419921875,1.1252747802734375,10.560823522949217,-0.045298621807486415,0.020251148572758632,-0.0029310872934255917
0.08858546142578125,1.0630255371093749,10.563217724609375,-0.041834609551619814,0.022915773384963714,-0.0021316998497640663
0.0909796630859375,1.1013327636718748,10.582371337890624,-0.04862940282274277,0.022649310903743208,0.0003996937218307625
0.19153613281249998,1.0726023437499999,10.594342346191405,-0.056090352296917,0.035972434964768624,0.0037304747370871167
0.06464344482421874,1.0534487304687499,10.596736547851561,-0.05102756515372735,0.041434915829789046,-0.005329249624410167
0.07422025146484375,1.0295067138671874,10.678139404296875,-0.04769678413847099,0.03890352225819422,-0.004396630940138387
0.05027823486328125,1.0965443603515623,10.541669909667968,-0.049029096544573526,0.02971056665608668,-0.0018652373685435584
0.09816226806640624,1.0726023437499999,10.601524951171875,-0.0528928025222709,0.024514548272286763,-0.006261868308681946
0.023942016601562498,1.0917559570312498,10.488997473144531,-0.05169372135677862,0.029310872934255914,-0.013856049023466432
0.06943184814453125,1.13006318359375,10.58476553955078,-0.05169372135677862,0.032508422708902016,-0.0021316998497640663
0.05027823486328125,1.1420341918945311,10.551246716308594,-0.0543583461689837,0.04036906590490701,-0.006528330789902454
0.055066638183593745,1.0366893188476562,10.510545288085936,-0.044898928085655654,0.03530627876171736,-0.003464012255866608
0.05985504150390625,1.1061211669921875,10.579977136230468,-0.0430336907171121,0.02011791733214838,-0.005196018383799912
0.031124621582031248,1.0414777221679687,10.64222637939453,-0.04290045947650184,0.012523736617363892,-0.0033307810152563544
0.05746083984375,1.0869675537109373,10.558429321289061,-0.04783001537908124,0.046231240491758196,0.002797856052815337
-0.016759411621093748,1.0773907470703123,10.596736547851561,-0.036105666205378875,0.0287779479718149,0.0013323124061025418
0.2059013427734375,1.2018892333984375,10.524910498046875,-0.04396630940138387,0.028378254249984136,0.005062787143189658
0.031124621582031248,0.9217676391601562,10.496180078124999,-0.04543185304809667,0.037837672333312186,0.0003996937218307625
0.00718260498046875,1.3072341064453123,10.474632263183594,-0.037171516130260915,0.029577335415476424,-0.005062787143189658
